Trial number,Fixation Onset NEV,Image Onset NEV,Stim on/off NEV,Stim onset NEV,Stim offset NEV,Response value NEV,Reaction onset NEV,Congruent Value NEV,Valence Value NEV,Reaction time NEV,TrialNum,Delay1,Delay2,TrialComplete,TimeImageOnset,ColorLev,TimeRec,TimeTrial,BlockNumber,TrialTypeDesignation
19.0,235.05,236.185,0.0,0.0,0.0,100.0,,,,,1.0,0.8,0.8,1.0,0.51293,0.0,256576.5865,1.1387,1.0,1.0
20.0,236.185,238.445,0.0,0.0,0.0,100.0,,,,,2.0,0.8,0.8,2.0,1.6476,0.0,256578.8464,3.3986,1.0,1.0
21.0,238.445,240.828,0.0,0.0,0.0,100.0,,,,,3.0,0.8,0.8,3.0,3.9078,1.0,256581.2312,5.7834,1.0,1.0
22.0,240.828,241.838,0.0,0.0,0.0,100.0,,,,,4.0,0.8,0.8,4.0,6.2913,1.0,256582.24,6.7922,1.0,1.0
23.0,241.838,244.222,0.0,0.0,0.0,100.0,,,,,5.0,0.8,0.8,5.0,7.3004,0.0,256584.624,9.1761,1.0,1.0
24.0,244.222,246.355,0.0,0.0,0.0,100.0,,,,,6.0,0.8,0.8,6.0,9.6849,1.0,256586.7587,11.3109,1.0,1.0
25.0,246.355,247.863,0.0,0.0,0.0,100.0,,,,,7.0,0.8,0.8,7.0,11.818,0.0,256588.2665,12.8186,1.0,1.0
26.0,247.863,249.121,0.0,0.0,0.0,100.0,,,,,8.0,0.8,0.8,8.0,13.3262,1.0,256589.5248,14.0769,1.0,1.0
27.0,249.121,250.13,0.0,0.0,0.0,100.0,,,,,9.0,0.8,0.8,9.0,14.5842,1.0,256590.5327,15.0849,1.0,1.0
28.0,250.13,251.14,0.0,0.0,0.0,100.0,,,,,10.0,0.8,0.8,10.0,15.5928,1.0,256591.5415,16.0936,1.0,1.0
29.0,251.14,253.274,0.0,0.0,0.0,100.0,,,,,11.0,0.8,0.8,11.0,16.6033,0.0,256593.6769,18.229,1.0,1.0
30.0,253.274,254.657,0.0,0.0,0.0,100.0,,,,,12.0,0.8,0.8,12.0,18.7371,1.0,256595.0605,19.6127,1.0,1.0
31.0,254.657,255.667,0.0,0.0,0.0,100.0,,,,,13.0,0.8,0.8,13.0,20.1202,1.0,256596.0696,20.6218,1.0,1.0
32.0,255.667,257.175,0.0,0.0,0.0,100.0,,,,,14.0,0.8,0.8,14.0,21.1295,0.0,256597.5784,22.1306,1.0,1.0
33.0,257.175,259.311,0.0,0.0,0.0,100.0,,,,,15.0,0.8,0.8,15.0,22.6381,1.0,256599.7116,24.2638,1.0,1.0
34.0,259.311,260.947,0.0,0.0,0.0,100.0,,,,,16.0,0.8,0.8,16.0,24.774,0.0,256601.3475,25.8997,1.0,1.0
35.0,260.947,262.831,0.0,0.0,0.0,100.0,,,,,17.0,0.8,0.8,17.0,26.4101,0.0,256603.2339,27.7861,1.0,1.0
36.0,262.831,264.967,0.0,0.0,0.0,100.0,,,,,18.0,0.8,0.8,18.0,28.294,0.0,256605.3677,29.9198,1.0,1.0
37.0,264.967,266.976,0.0,0.0,0.0,100.0,,,,,19.0,0.8,0.8,19.0,30.43,1.0,256607.3785,31.9307,1.0,1.0
38.0,266.976,268.108,0.0,0.0,0.0,100.0,,,,,20.0,0.8,0.8,20.0,32.4391,0.0,256608.5126,33.0647,1.0,1.0
39.0,268.108,269.741,0.0,0.0,0.0,100.0,,,,,21.0,0.8,0.8,21.0,33.5715,0.0,256610.145,34.6972,1.0,1.0
40.0,269.741,271.25,0.0,0.0,0.0,100.0,,,,,22.0,0.8,0.8,22.0,35.2042,1.0,256611.6527,36.2049,1.0,1.0
41.0,271.25,272.508,0.0,0.0,0.0,100.0,,,,,23.0,0.8,0.8,23.0,36.7128,0.0,256612.9114,37.4636,1.0,1.0
42.0,272.508,273.892,0.0,0.0,0.0,100.0,,,,,24.0,0.8,0.8,24.0,37.9711,0.0,256614.2946,38.8468,1.0,1.0
43.0,273.892,275.902,0.0,0.0,0.0,100.0,,,,,25.0,0.8,0.8,25.0,39.3546,1.0,256616.3031,40.8553,1.0,1.0
44.0,275.902,278.285,0.0,0.0,0.0,100.0,,,,,26.0,0.8,0.8,26.0,41.3648,0.0,256618.6883,43.2405,1.0,1.0
45.0,278.285,279.418,0.0,0.0,0.0,100.0,,,,,27.0,0.8,0.8,27.0,43.7481,0.0,256619.8217,44.3738,1.0,1.0
46.0,279.418,280.801,0.0,0.0,0.0,100.0,,,,,28.0,0.8,0.8,28.0,44.8811,1.0,256621.2046,45.7568,1.0,1.0
47.0,280.801,282.184,0.0,0.0,0.0,100.0,,,,,29.0,0.8,0.8,29.0,46.2641,1.0,256622.5876,47.1398,1.0,1.0
48.0,282.184,283.442,0.0,0.0,0.0,100.0,,,,,30.0,0.8,0.8,30.0,47.6469,1.0,256623.8453,48.3975,1.0,1.0
49.0,283.442,284.95,0.0,0.0,0.0,100.0,,,,,31.0,0.8,0.8,31.0,48.9046,1.0,256625.353,49.9052,1.0,1.0
50.0,284.95,286.334,0.0,0.0,0.0,100.0,,,,,32.0,0.8,0.8,32.0,50.4132,1.0,256626.7369,51.2891,1.0,1.0
51.0,286.334,287.967,0.0,0.0,0.0,100.0,,,,,33.0,0.8,0.8,33.0,51.7965,0.0,256628.3701,52.9222,1.0,1.0
52.0,287.967,290.101,0.0,0.0,0.0,100.0,,,,,34.0,0.8,0.8,34.0,53.4301,0.0,256630.5037,55.0558,1.0,1.0
53.0,290.101,291.859,0.0,0.0,0.0,100.0,,,,,35.0,0.8,0.8,35.0,55.5634,1.0,256632.2623,56.8145,1.0,1.0
54.0,291.859,293.243,0.0,0.0,0.0,100.0,,,,,36.0,0.8,0.8,36.0,57.3225,0.0,256633.646,58.1981,1.0,1.0
55.0,293.243,295.376,0.0,0.0,0.0,100.0,,,,,37.0,0.8,0.8,37.0,58.706,0.0,256635.7795,60.3316,1.0,1.0
56.0,295.376,297.134,0.0,0.0,0.0,100.0,,,,,38.0,0.8,0.8,38.0,60.8392,1.0,256637.5375,62.0897,1.0,1.0
57.0,297.134,298.143,0.0,0.0,0.0,100.0,,,,,39.0,0.8,0.8,39.0,62.5969,0.0,256638.5453,63.0975,1.0,1.0
58.0,298.143,300.275,0.0,0.0,0.0,100.0,,,,,40.0,0.8,0.8,40.0,63.6056,0.0,256640.679,65.2312,1.0,1.0
59.0,300.275,301.408,0.0,0.0,0.0,100.0,,,,,41.0,0.8,0.8,41.0,65.7382,0.0,256641.8116,66.3638,1.0,1.0
60.0,301.408,303.046,0.0,0.0,0.0,100.0,,,,,42.0,0.8,0.8,42.0,66.8705,1.0,256643.444,67.9961,1.0,1.0
61.0,303.046,304.557,0.0,0.0,0.0,100.0,,,,,43.0,0.8,0.8,43.0,68.5084,1.0,256644.9572,69.5094,1.0,1.0
62.0,304.557,306.69,0.0,0.0,0.0,100.0,,,,,44.0,0.8,0.8,44.0,70.02,0.0,256647.0934,71.6456,1.0,1.0
63.0,306.69,308.448,0.0,0.0,0.0,100.0,,,,,45.0,0.8,0.8,45.0,72.1534,1.0,256648.8519,73.404,1.0,1.0
64.0,308.448,310.331,0.0,0.0,0.0,100.0,,,,,46.0,0.8,0.8,46.0,73.911,0.0,256650.7345,75.2866,1.0,1.0
65.0,310.331,312.214,0.0,0.0,0.0,100.0,,,,,47.0,0.8,0.8,47.0,75.7937,0.0,256652.6172,77.1694,1.0,1.0
66.0,312.214,314.222,0.0,0.0,0.0,100.0,,,,,48.0,0.8,0.8,48.0,77.6772,1.0,256654.6256,79.1778,1.0,1.0
67.0,314.222,315.355,0.0,0.0,0.0,100.0,,,,,49.0,0.8,0.8,49.0,79.6847,1.0,256655.7582,80.3104,1.0,1.0
68.0,315.355,317.613,0.0,0.0,0.0,100.0,,,,,50.0,0.8,0.8,50.0,80.8176,0.0,256658.0161,82.5683,1.0,1.0
69.0,317.613,319.746,0.0,0.0,0.0,100.0,,,,,51.0,0.8,0.8,51.0,83.0758,1.0,256660.1495,84.7016,1.0,1.0
70.0,319.746,322.128,0.0,0.0,0.0,100.0,,,,,52.0,0.8,0.8,52.0,85.2086,1.0,256662.5321,87.0843,1.0,1.0
71.0,322.128,323.763,0.0,0.0,0.0,100.0,,,,,53.0,0.8,0.8,53.0,87.5911,0.0,256664.1645,88.7166,1.0,1.0
72.0,323.763,326.146,0.0,0.0,0.0,100.0,,,,,54.0,0.8,0.8,54.0,89.226,0.0,256666.5495,91.1016,1.0,1.0
73.0,326.146,328.28,0.0,0.0,0.0,100.0,,,,,55.0,0.8,0.8,55.0,91.6094,1.0,256668.683,93.2352,1.0,1.0
74.0,328.28,330.538,0.0,0.0,0.0,100.0,,,,,56.0,0.8,0.8,56.0,93.7431,1.0,256670.9416,95.4938,1.0,1.0
75.0,330.538,332.046,0.0,0.0,0.0,100.0,,,,,57.0,0.8,0.8,57.0,96.0009,0.0,256672.4494,97.0015,1.0,1.0
76.0,332.046,334.181,0.0,0.0,0.0,100.0,,,,,58.0,0.8,0.8,58.0,97.5089,1.0,256674.5824,99.1345,1.0,1.0
77.0,334.181,336.44,0.0,0.0,0.0,100.0,,,,,59.0,0.8,0.8,59.0,99.644,1.0,256676.8424,101.3946,1.0,1.0
78.0,336.44,337.823,0.0,0.0,0.0,100.0,,,,,60.0,0.8,0.8,60.0,101.9027,0.0,256678.2262,102.7783,1.0,1.0
79.0,337.823,338.956,0.0,0.0,0.0,100.0,,,,,61.0,0.8,0.8,61.0,103.2862,1.0,256679.3599,103.9121,1.0,1.0
80.0,338.956,340.716,0.0,0.0,0.0,100.0,,,,,62.0,0.8,0.8,62.0,104.419,1.0,256681.1175,105.6696,1.0,1.0
81.0,340.716,341.85,0.0,0.0,0.0,100.0,,,,,63.0,0.8,0.8,63.0,106.1788,1.0,256682.2522,106.8044,1.0,1.0
82.0,341.85,343.732,0.0,0.0,0.0,100.0,,,,,64.0,0.8,0.8,64.0,107.3129,0.0,256684.1363,108.6885,1.0,1.0
83.0,343.732,345.491,0.0,0.0,0.0,100.0,,,,,65.0,0.8,0.8,65.0,109.1955,0.0,256685.8939,110.4461,1.0,1.0
84.0,345.491,346.5,0.0,0.0,0.0,100.0,,,,,66.0,0.8,0.8,66.0,110.9537,1.0,256686.9023,111.4545,1.0,1.0
85.0,346.5,347.633,0.0,0.0,0.0,100.0,,,,,67.0,0.8,0.8,67.0,111.9629,1.0,256688.0364,112.5885,1.0,1.0
86.0,347.633,348.891,0.0,0.0,0.0,100.0,,,,,68.0,0.8,0.8,68.0,113.0965,1.0,256689.2949,113.8471,1.0,1.0
87.0,348.891,349.899,0.0,0.0,0.0,100.0,,,,,69.0,0.8,0.8,69.0,114.3539,1.0,256690.3023,114.8544,1.0,1.0
88.0,349.899,352.283,0.0,0.0,0.0,100.0,,,,,70.0,0.8,0.8,70.0,115.3619,0.0,256692.6853,117.2374,1.0,1.0
89.0,352.283,353.916,0.0,0.0,0.0,100.0,,,,,71.0,0.8,0.8,71.0,117.7461,1.0,256694.3196,118.8717,1.0,1.0
90.0,353.916,356.175,0.0,0.0,0.0,100.0,,,,,72.0,0.8,0.8,72.0,119.3793,0.0,256696.5778,121.1299,1.0,1.0
91.0,356.175,357.308,0.0,0.0,0.0,100.0,,,,,73.0,0.8,0.8,73.0,121.638,1.0,256697.7115,122.2637,1.0,1.0
92.0,357.308,358.816,0.0,0.0,0.0,100.0,,,,,74.0,0.8,0.8,74.0,122.7708,1.0,256699.2194,123.7716,1.0,1.0
93.0,358.816,360.324,0.0,0.0,0.0,100.0,,,,,75.0,0.8,0.8,75.0,124.2788,1.0,256700.7272,125.2794,1.0,1.0
94.0,360.324,361.457,0.0,0.0,0.0,100.0,,,,,76.0,0.8,0.8,76.0,125.7872,1.0,256701.8606,126.4128,1.0,1.0
95.0,361.457,363.839,0.0,0.0,0.0,100.0,,,,,77.0,0.8,0.8,77.0,126.9202,0.0,256704.2437,128.7958,1.0,1.0
96.0,363.839,364.848,0.0,0.0,0.0,100.0,,,,,78.0,0.8,0.8,78.0,129.3023,0.0,256705.2508,129.8029,1.0,1.0
97.0,364.848,366.356,0.0,0.0,0.0,100.0,,,,,79.0,0.8,0.8,79.0,130.3112,1.0,256706.7597,131.3119,1.0,1.0
98.0,366.356,367.365,0.0,0.0,0.0,100.0,,,,,80.0,0.8,0.8,80.0,131.819,0.0,256707.7675,132.3196,1.0,1.0
99.0,367.365,368.623,0.0,0.0,0.0,100.0,,,,,81.0,0.8,0.8,81.0,132.8275,0.0,256709.026,133.5781,1.0,1.0
100.0,368.623,370.631,0.0,0.0,0.0,100.0,,,,,82.0,0.8,0.8,82.0,134.0859,0.0,256711.0343,135.5865,1.0,1.0
101.0,370.631,372.264,0.0,0.0,0.0,100.0,,,,,83.0,0.8,0.8,83.0,136.0943,1.0,256712.6677,137.2199,1.0,1.0
102.0,372.264,373.648,0.0,0.0,0.0,100.0,,,,,84.0,0.8,0.8,84.0,137.7273,1.0,256714.0507,138.6029,1.0,1.0
103.0,373.648,374.909,0.0,0.0,0.0,100.0,,,,,85.0,0.8,0.8,85.0,139.1107,0.0,256715.3091,139.8613,1.0,1.0
104.0,374.909,376.167,0.0,0.0,0.0,100.0,,,,,86.0,0.8,0.8,86.0,140.3721,1.0,256716.5705,141.1227,1.0,1.0
105.0,376.167,378.049,0.0,0.0,0.0,100.0,,,,,87.0,0.8,0.8,87.0,141.63,0.0,256718.4534,143.0056,1.0,1.0
106.0,378.049,379.062,0.0,0.0,0.0,100.0,,,,,88.0,0.8,0.8,88.0,143.5122,0.0,256719.4606,144.0127,1.0,1.0
107.0,379.062,381.196,0.0,0.0,0.0,100.0,,,,,89.0,0.8,0.8,89.0,144.525,1.0,256721.5985,146.1506,1.0,1.0
108.0,381.196,382.829,0.0,0.0,0.0,100.0,,,,,90.0,0.8,0.8,90.0,146.6585,1.0,256723.232,147.7842,1.0,1.0
109.0,382.829,384.211,0.0,0.0,0.0,100.0,,,,,91.0,0.8,0.8,91.0,148.2915,1.0,256724.6149,149.1671,1.0,1.0
110.0,384.211,385.972,0.0,0.0,0.0,100.0,,,,,92.0,0.8,0.8,92.0,149.6739,1.0,256726.3728,150.925,1.0,1.0
111.0,385.972,388.105,0.0,0.0,0.0,100.0,,,,,93.0,0.8,0.8,93.0,151.4355,0.0,256728.5091,153.0613,1.0,1.0
112.0,388.105,389.614,0.0,0.0,0.0,100.0,,,,,94.0,0.8,0.8,94.0,153.568,1.0,256730.0165,154.5686,1.0,1.0
113.0,389.614,391.372,0.0,0.0,0.0,100.0,,,,,95.0,0.8,0.8,95.0,155.0765,0.0,256731.775,156.3272,1.0,1.0
114.0,391.372,393.756,0.0,0.0,0.0,100.0,,,,,96.0,0.8,0.8,96.0,156.8352,0.0,256734.1588,158.711,1.0,1.0
115.0,393.756,395.515,0.0,0.0,0.0,100.0,,,,,97.0,0.8,0.8,97.0,159.2194,0.0,256735.9179,160.47,1.0,1.0
116.0,395.515,397.399,0.0,0.0,0.0,100.0,,,,,98.0,0.8,0.8,98.0,160.978,0.0,256737.8015,162.3536,1.0,1.0
117.0,397.399,398.782,0.0,0.0,0.0,100.0,,,,,99.0,0.8,0.8,99.0,162.8618,0.0,256739.1853,163.7374,1.0,1.0
118.0,398.782,519.842,0.0,0.0,0.0,100.0,,,,,100.0,0.8,0.8,100.0,164.2452,1.0,256740.4437,164.9958,1.0,1.0
119.0,519.842,520.648,0.0,0.0,0.0,100.0,,,,,1.0,0.8,0.8,1.0,0.0078247,0.0,257100.0598,0.80889,2.0,2.0
120.0,520.648,521.457,0.0,0.0,0.0,100.0,,,,,2.0,0.8,0.8,2.0,0.81337,0.0,257100.8651,1.6142,2.0,2.0
121.0,521.457,522.263,0.0,0.0,0.0,100.0,,,,,3.0,0.8,0.8,3.0,1.6192,0.0,257101.671,2.4201,2.0,2.0
122.0,522.263,523.073,0.0,0.0,0.0,100.0,,,,,4.0,0.8,0.8,4.0,2.4244,1.0,257102.4759,3.225,2.0,2.0
123.0,523.073,523.881,0.0,0.0,0.0,100.0,,,,,5.0,0.8,0.8,5.0,3.229,0.0,257103.2807,4.0298,2.0,2.0
124.0,523.881,524.687,0.0,0.0,0.0,100.0,,,,,6.0,0.8,0.8,6.0,4.0345,1.0,257104.0862,4.8354,2.0,2.0
125.0,524.687,525.494,0.0,0.0,0.0,100.0,,,,,7.0,0.8,0.8,7.0,4.84,1.0,257104.8918,5.6409,2.0,2.0
126.0,525.494,526.299,0.0,0.0,0.0,100.0,,,,,8.0,0.8,0.8,8.0,5.6452,1.0,257105.697,6.4461,2.0,2.0
127.0,526.299,527.106,0.0,0.0,0.0,100.0,,,,,9.0,0.8,0.8,9.0,6.4505,0.0,257106.5022,7.2513,2.0,2.0
128.0,527.106,527.912,0.0,0.0,0.0,100.0,,,,,10.0,0.8,0.8,10.0,7.2564,1.0,257107.3079,8.057,2.0,2.0
129.0,527.912,528.717,0.0,0.0,0.0,100.0,,,,,11.0,0.8,0.8,11.0,8.0609,0.0,257108.1127,8.8618,2.0,2.0
130.0,528.717,529.522,0.0,0.0,0.0,100.0,,,,,12.0,0.8,0.8,12.0,8.8661,1.0,257108.9178,9.6669,2.0,2.0
131.0,529.522,530.327,0.0,0.0,0.0,100.0,,,,,13.0,0.8,0.8,13.0,9.6714,0.0,257109.7232,10.4723,2.0,2.0
132.0,530.327,531.133,0.0,0.0,0.0,100.0,,,,,14.0,0.8,0.8,14.0,10.4764,0.0,257110.5281,11.2772,2.0,2.0
133.0,531.133,531.938,0.0,0.0,0.0,100.0,,,,,15.0,0.8,0.8,15.0,11.2824,0.0,257111.3339,12.083,2.0,2.0
134.0,531.938,532.744,0.0,0.0,0.0,100.0,,,,,16.0,0.8,0.8,16.0,12.0871,0.0,257112.1389,12.888,2.0,2.0
135.0,532.744,533.55,0.0,0.0,0.0,100.0,,,,,17.0,0.8,0.8,17.0,12.8923,0.0,257112.944,13.6931,2.0,2.0
136.0,533.55,534.357,0.0,0.0,0.0,100.0,,,,,18.0,0.8,0.8,18.0,13.6981,0.0,257113.7497,14.4988,2.0,2.0
137.0,534.357,535.162,0.0,0.0,0.0,100.0,,,,,19.0,0.8,0.8,19.0,14.5028,1.0,257114.5545,15.3037,2.0,2.0
138.0,535.162,535.968,0.0,0.0,0.0,100.0,,,,,20.0,0.8,0.8,20.0,15.3081,0.0,257115.3598,16.1089,2.0,2.0
139.0,535.968,536.773,0.0,0.0,0.0,100.0,,,,,21.0,0.8,0.8,21.0,16.1139,0.0,257116.1656,16.9147,2.0,2.0
140.0,536.773,537.578,0.0,0.0,0.0,100.0,,,,,22.0,0.8,0.8,22.0,16.9192,1.0,257116.9708,17.7199,2.0,2.0
141.0,537.578,538.385,0.0,0.0,0.0,100.0,,,,,23.0,0.8,0.8,23.0,17.7239,0.0,257117.7755,18.5247,2.0,2.0
142.0,538.385,539.192,0.0,0.0,0.0,100.0,,,,,24.0,0.8,0.8,24.0,18.5308,1.0,257118.5825,19.3316,2.0,2.0
143.0,539.192,539.997,0.0,0.0,0.0,100.0,,,,,25.0,0.8,0.8,25.0,19.3366,0.0,257119.3883,20.1374,2.0,2.0
144.0,539.997,540.802,0.0,0.0,0.0,100.0,,,,,26.0,0.8,0.8,26.0,20.1423,1.0,257120.194,20.9431,2.0,2.0
145.0,540.802,541.608,0.0,0.0,0.0,100.0,,,,,27.0,0.8,0.8,27.0,20.949,1.0,257121.001,21.7501,2.0,2.0
146.0,541.608,542.413,0.0,0.0,0.0,100.0,,,,,28.0,0.8,0.8,28.0,21.7543,1.0,257121.806,22.5551,2.0,2.0
147.0,542.413,543.219,0.0,0.0,0.0,100.0,,,,,29.0,0.8,0.8,29.0,22.5607,0.0,257122.6122,23.3613,2.0,2.0
148.0,543.219,544.024,0.0,0.0,0.0,100.0,,,,,30.0,0.8,0.8,30.0,23.3654,0.0,257123.417,24.1662,2.0,2.0
149.0,544.024,544.83,0.0,0.0,0.0,100.0,,,,,31.0,0.8,0.8,31.0,24.1717,1.0,257124.2234,24.9725,2.0,2.0
150.0,544.83,545.635,0.0,0.0,0.0,100.0,,,,,32.0,0.8,0.8,32.0,24.9769,0.0,257125.0286,25.7777,2.0,2.0
151.0,545.635,546.441,0.0,0.0,0.0,100.0,,,,,33.0,0.8,0.8,33.0,25.7819,0.0,257125.8335,26.5826,2.0,2.0
152.0,546.441,547.246,0.0,0.0,0.0,100.0,,,,,34.0,0.8,0.8,34.0,26.5868,0.0,257126.6385,27.3876,2.0,2.0
153.0,547.246,548.051,0.0,0.0,0.0,100.0,,,,,35.0,0.8,0.8,35.0,27.3922,0.0,257127.4439,28.193,2.0,2.0
154.0,548.051,548.856,0.0,0.0,0.0,100.0,,,,,36.0,0.8,0.8,36.0,28.1973,0.0,257128.2488,28.9979,2.0,2.0
155.0,548.856,549.662,0.0,0.0,0.0,100.0,,,,,37.0,0.8,0.8,37.0,29.0017,1.0,257129.0534,29.8025,2.0,2.0
156.0,549.662,550.468,0.0,0.0,0.0,100.0,,,,,38.0,0.8,0.8,38.0,29.8078,0.0,257129.8596,30.6087,2.0,2.0
157.0,550.468,551.273,0.0,0.0,0.0,100.0,,,,,39.0,0.8,0.8,39.0,30.6127,1.0,257130.6643,31.4135,2.0,2.0
158.0,551.273,552.079,0.0,0.0,0.0,100.0,,,,,40.0,0.8,0.8,40.0,31.4179,0.0,257131.4694,32.2186,2.0,2.0
159.0,552.079,552.885,0.0,0.0,0.0,100.0,,,,,41.0,0.8,0.8,41.0,32.2224,0.0,257132.2741,33.0232,2.0,2.0
160.0,552.885,553.69,0.0,0.0,0.0,100.0,,,,,42.0,0.8,0.8,42.0,33.0278,1.0,257133.0797,33.8288,2.0,2.0
161.0,553.69,554.495,0.0,0.0,0.0,100.0,,,,,43.0,0.8,0.8,43.0,33.8331,1.0,257133.8848,34.634,2.0,2.0
162.0,554.495,555.301,0.0,0.0,0.0,100.0,,,,,44.0,0.8,0.8,44.0,34.6382,0.0,257134.6929,35.442,2.0,2.0
163.0,555.301,556.107,0.0,0.0,0.0,100.0,,,,,45.0,0.8,0.8,45.0,35.4451,0.0,257135.4968,36.2459,2.0,2.0
164.0,556.107,556.912,0.0,0.0,0.0,100.0,,,,,46.0,0.8,0.8,46.0,36.2508,1.0,257136.3025,37.0516,2.0,2.0
165.0,556.912,557.718,0.0,0.0,0.0,100.0,,,,,47.0,0.8,0.8,47.0,37.0559,1.0,257137.1077,37.8568,2.0,2.0
166.0,557.718,558.523,0.0,0.0,0.0,100.0,,,,,48.0,0.8,0.8,48.0,37.861,0.0,257137.9127,38.6618,2.0,2.0
167.0,558.523,559.329,0.0,0.0,0.0,100.0,,,,,49.0,0.8,0.8,49.0,38.6662,0.0,257138.7184,39.4675,2.0,2.0
168.0,559.329,560.134,0.0,0.0,0.0,100.0,,,,,50.0,0.8,0.8,50.0,39.4714,0.0,257139.5231,40.2722,2.0,2.0
169.0,560.134,560.939,0.0,0.0,0.0,100.0,,,,,51.0,0.8,0.8,51.0,40.2766,1.0,257140.3281,41.0772,2.0,2.0
170.0,560.939,561.745,0.0,0.0,0.0,100.0,,,,,52.0,0.8,0.8,52.0,41.0817,0.0,257141.1334,41.8825,2.0,2.0
171.0,561.745,562.55,0.0,0.0,0.0,100.0,,,,,53.0,0.8,0.8,53.0,41.8877,0.0,257141.9396,42.6887,2.0,2.0
172.0,562.55,563.356,0.0,0.0,0.0,100.0,,,,,54.0,0.8,0.8,54.0,42.6928,0.0,257142.7445,43.4937,2.0,2.0
173.0,563.356,564.161,0.0,0.0,0.0,100.0,,,,,55.0,0.8,0.8,55.0,43.498,0.0,257143.5497,44.2988,2.0,2.0
174.0,564.161,564.967,0.0,0.0,0.0,100.0,,,,,56.0,0.8,0.8,56.0,44.3033,0.0,257144.355,45.1041,2.0,2.0
175.0,564.967,565.772,0.0,0.0,0.0,100.0,,,,,57.0,0.8,0.8,57.0,45.1094,0.0,257145.1611,45.9102,2.0,2.0
176.0,565.772,566.577,0.0,0.0,0.0,100.0,,,,,58.0,0.8,0.8,58.0,45.9148,1.0,257145.9665,46.7156,2.0,2.0
177.0,566.577,567.384,0.0,0.0,0.0,100.0,,,,,59.0,0.8,0.8,59.0,46.72,0.0,257146.7717,47.5208,2.0,2.0
178.0,567.384,568.189,0.0,0.0,0.0,100.0,,,,,60.0,0.8,0.8,60.0,47.5251,1.0,257147.5774,48.3266,2.0,2.0
179.0,568.189,568.994,0.0,0.0,0.0,100.0,,,,,61.0,0.8,0.8,61.0,48.3306,0.0,257148.3821,49.1312,2.0,2.0
180.0,568.994,569.8,0.0,0.0,0.0,100.0,,,,,62.0,0.8,0.8,62.0,49.1351,1.0,257149.1868,49.9359,2.0,2.0
181.0,569.8,570.606,0.0,0.0,0.0,100.0,,,,,63.0,0.8,0.8,63.0,49.9409,1.0,257149.9925,50.7416,2.0,2.0
182.0,570.606,571.411,0.0,0.0,0.0,100.0,,,,,64.0,0.8,0.8,64.0,50.7459,0.0,257150.7977,51.5468,2.0,2.0
183.0,571.411,572.217,0.0,0.0,0.0,100.0,,,,,65.0,0.8,0.8,65.0,51.5511,1.0,257151.6028,52.3519,2.0,2.0
184.0,572.217,573.023,0.0,0.0,0.0,100.0,,,,,66.0,0.8,0.8,66.0,52.3566,1.0,257152.4082,53.1573,2.0,2.0
185.0,573.023,573.828,0.0,0.0,0.0,100.0,,,,,67.0,0.8,0.8,67.0,53.1612,1.0,257153.2129,53.962,2.0,2.0
186.0,573.828,574.633,0.0,0.0,0.0,100.0,,,,,68.0,0.8,0.8,68.0,53.9679,0.0,257154.0196,54.7687,2.0,2.0
187.0,574.633,575.439,0.0,0.0,0.0,100.0,,,,,69.0,0.8,0.8,69.0,54.7734,0.0,257154.8251,55.5742,2.0,2.0
188.0,575.439,576.244,0.0,0.0,0.0,100.0,,,,,70.0,0.8,0.8,70.0,55.5786,1.0,257155.6303,56.3794,2.0,2.0
189.0,576.244,577.049,0.0,0.0,0.0,100.0,,,,,71.0,0.8,0.8,71.0,56.3839,1.0,257156.4359,57.1851,2.0,2.0
190.0,577.049,577.855,0.0,0.0,0.0,100.0,,,,,72.0,0.8,0.8,72.0,57.189,0.0,257157.2407,57.9898,2.0,2.0
191.0,577.855,578.66,0.0,0.0,0.0,100.0,,,,,73.0,0.8,0.8,73.0,57.9954,1.0,257158.047,58.7962,2.0,2.0
192.0,578.66,579.465,0.0,0.0,0.0,100.0,,,,,74.0,0.8,0.8,74.0,58.8005,1.0,257158.852,59.6011,2.0,2.0
193.0,579.465,580.27,0.0,0.0,0.0,100.0,,,,,75.0,0.8,0.8,75.0,59.6068,1.0,257159.6585,60.4076,2.0,2.0
194.0,580.27,581.075,0.0,0.0,0.0,100.0,,,,,76.0,0.8,0.8,76.0,60.412,1.0,257160.4636,61.2128,2.0,2.0
195.0,581.075,581.88,0.0,0.0,0.0,100.0,,,,,77.0,0.8,0.8,77.0,61.2172,1.0,257161.2689,62.0181,2.0,2.0
196.0,581.88,582.686,0.0,0.0,0.0,100.0,,,,,78.0,0.8,0.8,78.0,62.0221,1.0,257162.0771,62.8262,2.0,2.0
197.0,582.686,583.491,0.0,0.0,0.0,100.0,,,,,79.0,0.8,0.8,79.0,62.8293,1.0,257162.8811,63.6302,2.0,2.0
198.0,583.491,584.296,0.0,0.0,0.0,100.0,,,,,80.0,0.8,0.8,80.0,63.6346,0.0,257163.6861,64.4352,2.0,2.0
199.0,584.296,585.101,0.0,0.0,0.0,100.0,,,,,81.0,0.8,0.8,81.0,64.4393,0.0,257164.4908,65.2399,2.0,2.0
200.0,585.101,585.906,0.0,0.0,0.0,100.0,,,,,82.0,0.8,0.8,82.0,65.244,1.0,257165.2958,66.0449,2.0,2.0
201.0,585.906,586.711,0.0,0.0,0.0,100.0,,,,,83.0,0.8,0.8,83.0,66.0498,1.0,257166.1016,66.8507,2.0,2.0
202.0,586.711,587.517,0.0,0.0,0.0,100.0,,,,,84.0,0.8,0.8,84.0,66.8547,0.0,257166.9064,67.6555,2.0,2.0
203.0,587.517,588.322,0.0,0.0,0.0,100.0,,,,,85.0,0.8,0.8,85.0,67.6599,1.0,257167.7116,68.4607,2.0,2.0
204.0,588.322,589.126,0.0,0.0,0.0,100.0,,,,,86.0,0.8,0.8,86.0,68.4648,1.0,257168.5165,69.2656,2.0,2.0
205.0,589.126,589.933,0.0,0.0,0.0,100.0,,,,,87.0,0.8,0.8,87.0,69.2707,0.0,257169.3223,70.0715,2.0,2.0
206.0,589.933,590.738,0.0,0.0,0.0,100.0,,,,,88.0,0.8,0.8,88.0,70.0754,1.0,257170.1271,70.8762,2.0,2.0
207.0,590.738,591.544,0.0,0.0,0.0,100.0,,,,,89.0,0.8,0.8,89.0,70.8808,1.0,257170.9323,71.6814,2.0,2.0
208.0,591.544,592.348,0.0,0.0,0.0,100.0,,,,,90.0,0.8,0.8,90.0,71.686,1.0,257171.7377,72.4869,2.0,2.0
209.0,592.348,593.154,0.0,0.0,0.0,100.0,,,,,91.0,0.8,0.8,91.0,72.4923,1.0,257172.5441,73.2932,2.0,2.0
210.0,593.154,593.96,0.0,0.0,0.0,100.0,,,,,92.0,0.8,0.8,92.0,73.2976,1.0,257173.3491,74.0982,2.0,2.0
211.0,593.96,594.765,0.0,0.0,0.0,100.0,,,,,93.0,0.8,0.8,93.0,74.1023,1.0,257174.1542,74.9033,2.0,2.0
212.0,594.765,595.57,0.0,0.0,0.0,100.0,,,,,94.0,0.8,0.8,94.0,74.9078,0.0,257174.9594,75.7086,2.0,2.0
213.0,595.57,596.376,0.0,0.0,0.0,100.0,,,,,95.0,0.8,0.8,95.0,75.7131,1.0,257175.7646,76.5137,2.0,2.0
214.0,596.376,597.181,0.0,0.0,0.0,100.0,,,,,96.0,0.8,0.8,96.0,76.5178,1.0,257176.5695,77.3186,2.0,2.0
215.0,597.181,597.986,0.0,0.0,0.0,100.0,,,,,97.0,0.8,0.8,97.0,77.3232,0.0,257177.375,78.1241,2.0,2.0
216.0,597.986,598.79,0.0,0.0,0.0,100.0,,,,,98.0,0.8,0.8,98.0,78.1291,0.0,257178.1808,78.9299,2.0,2.0
217.0,598.79,599.596,0.0,0.0,0.0,100.0,,,,,99.0,0.8,0.8,99.0,78.9339,1.0,257178.9856,79.7347,2.0,2.0
218.0,599.596,618.561,0.0,0.0,0.0,100.0,,,,,100.0,0.8,0.8,100.0,79.7391,0.0,257179.7908,80.5399,2.0,2.0
219.0,618.561,619.366,0.0,0.0,0.0,100.0,,,,,1.0,3.25,1.25,1.0,0.0052564,0.0,256960.2729,0.806,3.0,2.0
220.0,619.366,620.172,0.0,0.0,0.0,100.0,,,,,2.0,2.25,3.5,2.0,0.81031,0.0,256961.0781,1.6112,3.0,2.0
221.0,620.172,620.978,0.0,0.0,0.0,100.0,,,,,3.0,3.25,3.75,3.0,1.616,0.0,256961.8838,2.4169,3.0,2.0
222.0,620.978,621.783,0.0,0.0,0.0,100.0,,,,,4.0,2.75,1.0,4.0,2.4216,1.0,256962.6893,3.2224,3.0,2.0
223.0,621.783,622.588,0.0,0.0,0.0,100.0,,,,,5.0,3.5,3.75,5.0,3.227,0.0,256963.4946,4.0277,3.0,2.0
224.0,622.588,623.393,0.0,0.0,0.0,100.0,,,,,6.0,3.0,3.25,6.0,4.0316,1.0,256964.2993,4.8324,3.0,2.0
225.0,623.393,624.198,0.0,0.0,0.0,100.0,,,,,7.0,3.0,2.0,7.0,4.8368,1.0,256965.1046,5.6377,3.0,2.0
226.0,624.198,625.003,0.0,0.0,0.0,100.0,,,,,8.0,2.75,1.5,8.0,5.6417,1.0,256965.9093,6.4424,3.0,2.0
227.0,625.003,625.809,0.0,0.0,0.0,100.0,,,,,9.0,3.0,1.0,9.0,6.4467,0.0,256966.7144,7.2475,3.0,2.0
228.0,625.809,626.613,0.0,0.0,0.0,100.0,,,,,10.0,1.75,1.0,10.0,7.2526,1.0,256967.5204,8.0535,3.0,2.0
229.0,626.613,627.418,0.0,0.0,0.0,100.0,,,,,11.0,1.25,3.25,11.0,8.0574,0.0,256968.325,8.8581,3.0,2.0
230.0,627.418,628.224,0.0,0.0,0.0,100.0,,,,,12.0,3.0,1.75,12.0,8.8621,1.0,256969.1298,9.6629,3.0,2.0
231.0,628.224,629.03,0.0,0.0,0.0,100.0,,,,,13.0,3.75,1.0,13.0,9.6684,0.0,256969.9361,10.4692,3.0,2.0
232.0,629.03,629.835,0.0,0.0,0.0,100.0,,,,,14.0,2.25,2.0,14.0,10.4741,0.0,256970.7416,11.2747,3.0,2.0
233.0,629.835,630.64,0.0,0.0,0.0,100.0,,,,,15.0,3.25,3.25,15.0,11.2788,0.0,256971.5466,12.0796,3.0,2.0
234.0,630.64,631.446,0.0,0.0,0.0,100.0,,,,,16.0,1.5,2.25,16.0,12.0841,0.0,256972.3524,12.8855,3.0,2.0
235.0,631.446,632.251,0.0,0.0,0.0,100.0,,,,,17.0,2.25,2.75,17.0,12.8897,0.0,256973.1574,13.6905,3.0,2.0
236.0,632.251,633.056,0.0,0.0,0.0,100.0,,,,,18.0,3.0,3.25,18.0,13.695,0.0,256973.9627,14.4958,3.0,2.0
237.0,633.056,633.862,0.0,0.0,0.0,100.0,,,,,19.0,1.75,3.0,19.0,14.5003,1.0,256974.768,15.3011,3.0,2.0
238.0,633.862,634.667,0.0,0.0,0.0,100.0,,,,,20.0,2.75,1.25,20.0,15.3056,0.0,256975.5734,16.1065,3.0,2.0
239.0,634.667,635.473,0.0,0.0,0.0,100.0,,,,,21.0,1.25,2.25,21.0,16.1113,0.0,256976.3792,16.9123,3.0,2.0
240.0,635.473,636.277,0.0,0.0,0.0,100.0,,,,,22.0,3.75,2.0,22.0,16.9168,1.0,256977.1843,17.7174,3.0,2.0
241.0,636.277,637.082,0.0,0.0,0.0,100.0,,,,,23.0,2.75,1.5,23.0,17.7213,0.0,256977.9889,18.522,3.0,2.0
242.0,637.082,637.887,0.0,0.0,0.0,100.0,,,,,24.0,3.25,1.75,24.0,18.5259,1.0,256978.7937,19.3268,3.0,2.0
243.0,637.887,638.693,0.0,0.0,0.0,100.0,,,,,25.0,2.5,3.0,25.0,19.3315,0.0,256979.5993,20.1324,3.0,2.0
244.0,638.693,639.497,0.0,0.0,0.0,100.0,,,,,26.0,3.5,3.75,26.0,20.1368,1.0,256980.4044,20.9375,3.0,2.0
245.0,639.497,640.305,0.0,0.0,0.0,100.0,,,,,27.0,2.5,1.25,27.0,20.9414,1.0,256981.2092,21.7423,3.0,2.0
246.0,640.305,641.11,0.0,0.0,0.0,100.0,,,,,28.0,1.25,1.75,28.0,21.7487,1.0,256982.0164,22.5495,3.0,2.0
247.0,641.11,641.915,0.0,0.0,0.0,100.0,,,,,29.0,3.5,1.75,29.0,22.5541,0.0,256982.8219,23.355,3.0,2.0
248.0,641.915,642.72,0.0,0.0,0.0,100.0,,,,,30.0,3.25,1.5,30.0,23.3595,0.0,256983.6272,24.1603,3.0,2.0
249.0,642.72,654.764,0.0,0.0,0.0,100.0,,,,,31.0,3.75,2.0,31.0,24.1645,1.0,256984.4323,24.9654,3.0,2.0
250.0,654.764,655.571,0.0,0.0,0.0,100.0,,,,,1.0,3.25,1.25,1.0,0.012164,0.0,256861.5538,0.81386,4.0,2.0
251.0,655.571,656.376,0.0,0.0,0.0,100.0,,,,,2.0,2.25,3.5,2.0,0.8189,0.0,256862.3607,1.6207,4.0,2.0
252.0,656.376,657.181,0.0,0.0,0.0,100.0,,,,,3.0,3.25,3.75,3.0,1.6275,0.0,256863.1693,2.4293,4.0,2.0
253.0,657.181,657.986,0.0,0.0,0.0,100.0,,,,,4.0,2.75,1.0,4.0,2.4339,1.0,256863.9753,3.2353,4.0,2.0
254.0,657.986,658.792,0.0,0.0,0.0,100.0,,,,,5.0,3.5,3.75,5.0,3.2435,0.0,256864.787,4.0473,4.0,2.0
255.0,658.792,659.597,0.0,0.0,0.0,100.0,,,,,6.0,3.0,3.25,6.0,4.0515,1.0,256865.5925,4.8525,4.0,2.0
256.0,659.597,660.402,0.0,0.0,0.0,100.0,,,,,7.0,3.0,2.0,7.0,4.8576,1.0,256866.3987,5.6587,4.0,2.0
257.0,660.402,661.207,0.0,0.0,0.0,100.0,,,,,8.0,2.75,1.5,8.0,5.6641,1.0,256867.2057,6.4657,4.0,2.0
258.0,661.207,662.012,0.0,0.0,0.0,100.0,,,,,9.0,3.0,1.0,9.0,6.4699,0.0,256868.0109,7.2709,4.0,2.0
259.0,662.012,662.818,0.0,0.0,0.0,100.0,,,,,10.0,1.75,1.0,10.0,7.2764,1.0,256868.8175,8.0775,4.0,2.0
260.0,662.818,663.623,0.0,0.0,0.0,100.0,,,,,11.0,1.25,3.25,11.0,8.0827,0.0,256869.6235,8.8834,4.0,2.0
261.0,663.623,664.436,0.0,0.0,0.0,100.0,,,,,12.0,3.0,1.75,12.0,8.8878,1.0,256870.4287,9.6886,4.0,2.0
262.0,664.436,665.241,0.0,0.0,0.0,100.0,,,,,13.0,3.75,1.0,13.0,9.693,0.0,256871.2337,10.4937,4.0,2.0
263.0,665.241,666.046,0.0,0.0,0.0,100.0,,,,,14.0,2.25,2.0,14.0,10.4983,0.0,256872.0392,11.2993,4.0,2.0
264.0,666.046,666.852,0.0,0.0,0.0,100.0,,,,,15.0,3.25,3.25,15.0,11.3041,0.0,256872.8448,12.1048,4.0,2.0
265.0,666.852,667.657,0.0,0.0,0.0,100.0,,,,,16.0,1.5,2.25,16.0,12.1091,0.0,256873.6501,12.9101,4.0,2.0
266.0,667.657,668.462,0.0,0.0,0.0,100.0,,,,,17.0,2.25,2.75,17.0,12.9148,0.0,256874.4559,13.7159,4.0,2.0
267.0,668.462,669.268,0.0,0.0,0.0,100.0,,,,,18.0,3.0,3.25,18.0,13.7211,0.0,256875.2646,14.5246,4.0,2.0
268.0,669.268,670.074,0.0,0.0,0.0,100.0,,,,,19.0,1.75,3.0,19.0,14.5281,1.0,256876.0688,15.3288,4.0,2.0
269.0,670.074,670.879,0.0,0.0,0.0,100.0,,,,,20.0,2.75,1.25,20.0,15.3331,0.0,256876.8744,16.1344,4.0,2.0
270.0,670.879,671.685,0.0,0.0,0.0,100.0,,,,,21.0,1.25,2.25,21.0,16.1389,0.0,256877.6799,16.94,4.0,2.0
271.0,671.685,672.49,0.0,0.0,0.0,100.0,,,,,22.0,3.75,2.0,22.0,16.9443,1.0,256878.4851,17.7451,4.0,2.0
272.0,672.49,673.296,0.0,0.0,0.0,100.0,,,,,23.0,2.75,1.5,23.0,17.7492,0.0,256879.2902,18.5503,4.0,2.0
273.0,673.296,674.101,0.0,0.0,0.0,100.0,,,,,24.0,3.25,1.75,24.0,18.5554,1.0,256880.0991,19.3591,4.0,2.0
274.0,674.101,674.906,0.0,0.0,0.0,100.0,,,,,25.0,2.5,3.0,25.0,19.3627,0.0,256880.9036,20.1636,4.0,2.0
275.0,674.906,675.711,0.0,0.0,0.0,100.0,,,,,26.0,3.5,3.75,26.0,20.1677,1.0,256881.7085,20.9685,4.0,2.0
276.0,675.711,676.516,0.0,0.0,0.0,100.0,,,,,27.0,2.5,1.25,27.0,20.9728,1.0,256882.514,21.774,4.0,2.0
277.0,676.516,677.322,0.0,0.0,0.0,100.0,,,,,28.0,1.25,1.75,28.0,21.779,1.0,256883.3201,22.5801,4.0,2.0
278.0,677.322,678.127,0.0,0.0,0.0,100.0,,,,,29.0,3.5,1.75,29.0,22.5843,0.0,256884.1251,23.385,4.0,2.0
279.0,678.127,678.932,0.0,0.0,0.0,100.0,,,,,30.0,3.25,1.5,30.0,23.3897,0.0,256884.9308,24.1908,4.0,2.0
280.0,678.932,679.738,0.0,0.0,0.0,100.0,,,,,31.0,3.75,2.0,31.0,24.1953,1.0,256885.7364,24.9964,4.0,2.0
281.0,679.738,680.544,0.0,0.0,0.0,100.0,,,,,32.0,1.5,1.75,32.0,25.001,0.0,256886.5418,25.8017,4.0,2.0
282.0,680.544,681.349,0.0,0.0,0.0,100.0,,,,,33.0,2.75,2.25,33.0,25.8059,0.0,256887.3469,26.6069,4.0,2.0
283.0,681.349,682.155,0.0,0.0,0.0,100.0,,,,,34.0,2.0,3.25,34.0,26.6115,0.0,256888.1524,27.4124,4.0,2.0
284.0,682.155,682.96,0.0,0.0,0.0,100.0,,,,,35.0,2.75,2.5,35.0,27.4166,0.0,256888.9575,28.2175,4.0,2.0
285.0,682.96,683.766,0.0,0.0,0.0,100.0,,,,,36.0,3.75,1.75,36.0,28.222,0.0,256889.763,29.023,4.0,2.0
286.0,683.766,684.572,0.0,0.0,0.0,100.0,,,,,37.0,3.25,3.25,37.0,29.0273,1.0,256890.5682,29.8282,4.0,2.0
287.0,684.572,685.377,0.0,0.0,0.0,100.0,,,,,38.0,2.0,2.5,38.0,29.8333,0.0,256891.3742,30.6342,4.0,2.0
288.0,685.377,686.183,0.0,0.0,0.0,100.0,,,,,39.0,1.0,1.0,39.0,30.6392,1.0,256892.1801,31.4401,4.0,2.0
289.0,686.183,686.988,0.0,0.0,0.0,100.0,,,,,40.0,2.5,3.25,40.0,31.4442,0.0,256892.9851,32.2451,4.0,2.0
290.0,686.988,687.793,0.0,0.0,0.0,100.0,,,,,41.0,3.75,1.25,41.0,32.2498,0.0,256893.7909,33.0508,4.0,2.0
291.0,687.793,688.598,0.0,0.0,0.0,100.0,,,,,42.0,2.5,2.25,42.0,33.0557,1.0,256894.5966,33.8565,4.0,2.0
292.0,688.598,689.404,0.0,0.0,0.0,100.0,,,,,43.0,1.0,2.0,43.0,33.8611,1.0,256895.4019,34.6619,4.0,2.0
293.0,689.404,690.208,0.0,0.0,0.0,100.0,,,,,44.0,1.25,3.25,44.0,34.6662,0.0,256896.2071,35.4671,4.0,2.0
294.0,690.208,691.014,0.0,0.0,0.0,100.0,,,,,45.0,1.75,2.5,45.0,35.4722,0.0,256897.0131,36.273,4.0,2.0
295.0,691.014,691.819,0.0,0.0,0.0,100.0,,,,,46.0,1.25,2.75,46.0,36.278,1.0,256897.8189,37.0789,4.0,2.0
296.0,691.819,692.625,0.0,0.0,0.0,100.0,,,,,47.0,1.75,2.75,47.0,37.0832,1.0,256898.6241,37.884,4.0,2.0
297.0,692.625,693.43,0.0,0.0,0.0,100.0,,,,,48.0,3.0,3.0,48.0,37.8886,0.0,256899.4299,38.6898,4.0,2.0
298.0,693.43,694.236,0.0,0.0,0.0,100.0,,,,,49.0,2.25,1.25,49.0,38.694,0.0,256900.2349,39.4949,4.0,2.0
299.0,694.236,695.045,0.0,0.0,0.0,100.0,,,,,50.0,1.5,3.5,50.0,39.4995,0.0,256901.0404,40.3005,4.0,2.0
300.0,695.045,695.85,0.0,0.0,0.0,100.0,,,,,51.0,1.25,3.25,51.0,40.3048,1.0,256901.8454,41.1055,4.0,2.0
301.0,695.85,696.655,0.0,0.0,0.0,100.0,,,,,52.0,2.5,3.75,52.0,41.1099,0.0,256902.6508,41.9109,4.0,2.0
302.0,696.655,697.461,0.0,0.0,0.0,100.0,,,,,53.0,1.0,2.25,53.0,41.916,0.0,256903.4569,42.7169,4.0,2.0
303.0,697.461,698.266,0.0,0.0,0.0,100.0,,,,,54.0,1.25,3.75,54.0,42.7211,0.0,256904.2621,43.5221,4.0,2.0
304.0,698.266,699.072,0.0,0.0,0.0,100.0,,,,,55.0,1.0,3.25,55.0,43.5265,0.0,256905.0675,44.3274,4.0,2.0
305.0,699.072,699.877,0.0,0.0,0.0,100.0,,,,,56.0,3.25,3.5,56.0,44.3322,0.0,256905.8732,45.1332,4.0,2.0
306.0,699.877,700.682,0.0,0.0,0.0,100.0,,,,,57.0,1.25,2.0,57.0,45.1379,0.0,256906.6786,45.9386,4.0,2.0
307.0,700.682,701.488,0.0,0.0,0.0,100.0,,,,,58.0,1.75,3.25,58.0,45.9427,1.0,256907.4836,46.7436,4.0,2.0
308.0,701.488,702.293,0.0,0.0,0.0,100.0,,,,,59.0,2.25,3.5,59.0,46.7482,0.0,256908.2892,47.5492,4.0,2.0
309.0,702.293,703.097,0.0,0.0,0.0,100.0,,,,,60.0,1.5,1.75,60.0,47.5545,1.0,256909.0956,48.3556,4.0,2.0
310.0,703.097,703.903,0.0,0.0,0.0,100.0,,,,,61.0,1.25,1.25,61.0,48.3601,0.0,256909.9008,49.1608,4.0,2.0
311.0,703.903,704.708,0.0,0.0,0.0,100.0,,,,,62.0,3.5,2.5,62.0,49.1649,1.0,256910.7059,49.9659,4.0,2.0
312.0,704.708,705.512,0.0,0.0,0.0,100.0,,,,,63.0,2.5,1.25,63.0,49.9708,1.0,256911.5118,50.7717,4.0,2.0
313.0,705.512,706.318,0.0,0.0,0.0,100.0,,,,,64.0,3.5,2.75,64.0,50.7764,0.0,256912.3174,51.5773,4.0,2.0
314.0,706.318,707.123,0.0,0.0,0.0,100.0,,,,,65.0,2.0,2.5,65.0,51.5818,1.0,256913.1228,52.3827,4.0,2.0
315.0,707.123,707.928,0.0,0.0,0.0,100.0,,,,,66.0,2.0,1.0,66.0,52.3877,1.0,256913.9287,53.1886,4.0,2.0
316.0,707.928,708.733,0.0,0.0,0.0,100.0,,,,,67.0,1.5,1.25,67.0,53.194,1.0,256914.7349,53.9949,4.0,2.0
317.0,708.733,709.538,0.0,0.0,0.0,100.0,,,,,68.0,1.5,1.5,68.0,53.9993,0.0,256915.54,54.8,4.0,2.0
318.0,709.538,710.344,0.0,0.0,0.0,100.0,,,,,69.0,2.25,1.0,69.0,54.8039,0.0,256916.3447,55.6047,4.0,2.0
319.0,710.344,711.149,0.0,0.0,0.0,100.0,,,,,70.0,3.5,3.75,70.0,55.6097,1.0,256917.1506,56.4105,4.0,2.0
320.0,711.149,711.953,0.0,0.0,0.0,100.0,,,,,71.0,2.25,2.25,71.0,56.4151,1.0,256917.956,57.216,4.0,2.0
321.0,711.953,712.76,0.0,0.0,0.0,100.0,,,,,72.0,2.0,3.5,72.0,57.2201,0.0,256918.761,58.0209,4.0,2.0
322.0,712.76,713.564,0.0,0.0,0.0,100.0,,,,,73.0,2.0,1.25,73.0,58.0254,1.0,256919.5666,58.8266,4.0,2.0
323.0,713.564,714.37,0.0,0.0,0.0,100.0,,,,,74.0,3.25,2.0,74.0,58.8308,1.0,256920.3717,59.6317,4.0,2.0
324.0,714.37,715.175,0.0,0.0,0.0,100.0,,,,,75.0,1.5,2.0,75.0,59.6359,1.0,256921.1767,60.4367,4.0,2.0
325.0,715.175,715.98,0.0,0.0,0.0,100.0,,,,,76.0,1.25,1.25,76.0,60.4405,1.0,256921.9813,61.2413,4.0,2.0
326.0,715.98,716.785,0.0,0.0,0.0,100.0,,,,,77.0,3.75,3.75,77.0,61.2459,1.0,256922.7868,62.0468,4.0,2.0
327.0,716.785,717.59,0.0,0.0,0.0,100.0,,,,,78.0,2.5,1.0,78.0,62.0512,1.0,256923.5921,62.852,4.0,2.0
328.0,717.59,718.396,0.0,0.0,0.0,100.0,,,,,79.0,1.5,2.0,79.0,62.8564,1.0,256924.3973,63.6572,4.0,2.0
329.0,718.396,719.201,0.0,0.0,0.0,100.0,,,,,80.0,3.25,1.0,80.0,63.6616,0.0,256925.2024,64.4624,4.0,2.0
330.0,719.201,720.007,0.0,0.0,0.0,100.0,,,,,81.0,1.0,1.5,81.0,64.4669,0.0,256926.0079,65.2678,4.0,2.0
331.0,720.007,720.813,0.0,0.0,0.0,100.0,,,,,82.0,2.75,3.0,82.0,65.2722,1.0,256926.8129,66.0728,4.0,2.0
332.0,720.813,721.619,0.0,0.0,0.0,100.0,,,,,83.0,2.75,2.25,83.0,66.0767,1.0,256927.6176,66.8775,4.0,2.0
333.0,721.619,722.425,0.0,0.0,0.0,100.0,,,,,84.0,2.5,1.75,84.0,66.8821,0.0,256928.4228,67.6828,4.0,2.0
334.0,722.425,723.23,0.0,0.0,0.0,100.0,,,,,85.0,3.0,1.5,85.0,67.6878,1.0,256929.2286,68.4886,4.0,2.0
335.0,723.23,724.035,0.0,0.0,0.0,100.0,,,,,86.0,3.0,1.5,86.0,68.4926,1.0,256930.0334,69.2934,4.0,2.0
336.0,724.035,724.84,0.0,0.0,0.0,100.0,,,,,87.0,2.0,2.75,87.0,69.2973,0.0,256930.8382,70.0981,4.0,2.0
337.0,724.84,725.645,0.0,0.0,0.0,100.0,,,,,88.0,3.25,1.0,88.0,70.1042,1.0,256931.6452,70.9051,4.0,2.0
338.0,725.645,726.45,0.0,0.0,0.0,100.0,,,,,89.0,3.75,3.25,89.0,70.9094,1.0,256932.4502,71.7102,4.0,2.0
339.0,726.45,727.256,0.0,0.0,0.0,100.0,,,,,90.0,2.25,2.25,90.0,71.7145,1.0,256933.2554,72.5153,4.0,2.0
340.0,727.256,728.063,0.0,0.0,0.0,100.0,,,,,91.0,2.25,1.75,91.0,72.5192,1.0,256934.0601,73.3201,4.0,2.0
341.0,728.063,728.867,0.0,0.0,0.0,100.0,,,,,92.0,2.5,2.5,92.0,73.3252,1.0,256934.8661,74.1261,4.0,2.0
342.0,728.867,729.672,0.0,0.0,0.0,100.0,,,,,93.0,3.25,3.25,93.0,74.1307,1.0,256935.6716,74.9316,4.0,2.0
343.0,729.672,730.477,0.0,0.0,0.0,100.0,,,,,94.0,2.75,2.0,94.0,74.9361,0.0,256936.477,75.737,4.0,2.0
344.0,730.477,731.282,0.0,0.0,0.0,100.0,,,,,95.0,3.25,2.5,95.0,75.7413,1.0,256937.2821,76.5421,4.0,2.0
345.0,731.282,732.088,0.0,0.0,0.0,100.0,,,,,96.0,2.0,3.75,96.0,76.5471,1.0,256938.088,77.348,4.0,2.0
346.0,732.088,732.893,0.0,0.0,0.0,100.0,,,,,97.0,3.5,2.5,97.0,77.3522,0.0,256938.8929,78.1528,4.0,2.0
347.0,732.893,733.698,0.0,0.0,0.0,100.0,,,,,98.0,2.75,2.75,98.0,78.1567,0.0,256939.6973,78.9573,4.0,2.0
348.0,733.698,734.503,0.0,0.0,0.0,100.0,,,,,99.0,1.5,1.75,99.0,78.9612,1.0,256940.502,79.762,4.0,2.0
349.0,734.503,758.348,0.0,0.0,0.0,100.0,,,,,100.0,2.25,1.5,100.0,79.7669,0.0,256941.3077,80.5677,4.0,2.0
350.0,758.348,759.153,0.0,0.0,0.0,100.0,,,,,1.0,3.25,1.25,1.0,0.0053436,0.0,256996.4765,0.80675,5.0,2.0
351.0,759.153,759.959,0.0,0.0,0.0,100.0,,,,,2.0,2.25,3.5,2.0,0.81178,0.0,256997.2825,1.6127,5.0,2.0
352.0,759.959,760.764,0.0,0.0,0.0,100.0,,,,,3.0,3.25,3.75,3.0,1.6171,0.0,256998.0877,2.4179,5.0,2.0
353.0,760.764,761.569,0.0,0.0,0.0,100.0,,,,,4.0,2.75,1.0,4.0,2.4223,1.0,256998.8927,3.223,5.0,2.0
354.0,761.569,762.374,0.0,0.0,0.0,100.0,,,,,5.0,3.5,3.75,5.0,3.227,0.0,256999.6976,4.0279,5.0,2.0
355.0,762.374,763.18,0.0,0.0,0.0,100.0,,,,,6.0,3.0,3.25,6.0,4.0328,1.0,257000.5035,4.8337,5.0,2.0
356.0,763.18,763.985,0.0,0.0,0.0,100.0,,,,,7.0,3.0,2.0,7.0,4.838,1.0,257001.3084,5.6386,5.0,2.0
357.0,763.985,764.79,0.0,0.0,0.0,100.0,,,,,8.0,2.75,1.5,8.0,5.643,1.0,257002.1135,6.4437,5.0,2.0
358.0,764.79,765.596,0.0,0.0,0.0,100.0,,,,,9.0,3.0,1.0,9.0,6.448,0.0,257002.9186,7.2488,5.0,2.0
359.0,765.596,766.401,0.0,0.0,0.0,100.0,,,,,10.0,1.75,1.0,10.0,7.2536,1.0,257003.7242,8.0544,5.0,2.0
360.0,766.401,767.206,0.0,0.0,0.0,100.0,,,,,11.0,1.25,3.25,11.0,8.0587,0.0,257004.5293,8.8595,5.0,2.0
361.0,767.206,768.011,0.0,0.0,0.0,100.0,,,,,12.0,3.0,1.75,12.0,8.8637,1.0,257005.3343,9.6646,5.0,2.0
362.0,768.011,768.816,0.0,0.0,0.0,100.0,,,,,13.0,3.75,1.0,13.0,9.6767,0.0,257006.1473,10.4776,5.0,2.0
363.0,768.816,769.622,0.0,0.0,0.0,100.0,,,,,14.0,2.25,2.0,14.0,10.482,0.0,257006.9526,11.2829,5.0,2.0
364.0,769.622,770.427,0.0,0.0,0.0,100.0,,,,,15.0,3.25,3.25,15.0,11.2874,0.0,257007.758,12.0882,5.0,2.0
365.0,770.427,771.232,0.0,0.0,0.0,100.0,,,,,16.0,1.5,2.25,16.0,12.0928,0.0,257008.5634,12.8936,5.0,2.0
366.0,771.232,772.038,0.0,0.0,0.0,100.0,,,,,17.0,2.25,2.75,17.0,12.8982,0.0,257009.3688,13.6991,5.0,2.0
367.0,772.038,772.843,0.0,0.0,0.0,100.0,,,,,18.0,3.0,3.25,18.0,13.7037,0.0,257010.1743,14.5045,5.0,2.0
368.0,772.843,773.648,0.0,0.0,0.0,100.0,,,,,19.0,1.75,3.0,19.0,14.5094,1.0,257010.98,15.3103,5.0,2.0
369.0,773.648,774.454,0.0,0.0,0.0,100.0,,,,,20.0,2.75,1.25,20.0,15.3148,0.0,257011.7854,16.1156,5.0,2.0
370.0,774.454,775.259,0.0,0.0,0.0,100.0,,,,,21.0,1.25,2.25,21.0,16.12,0.0,257012.5906,16.9209,5.0,2.0
371.0,775.259,776.064,0.0,0.0,0.0,100.0,,,,,22.0,3.75,2.0,22.0,16.9258,1.0,257013.3964,17.7266,5.0,2.0
372.0,776.064,776.871,0.0,0.0,0.0,100.0,,,,,23.0,2.75,1.5,23.0,17.7313,0.0,257014.2019,18.5321,5.0,2.0
373.0,776.871,777.676,0.0,0.0,0.0,100.0,,,,,24.0,3.25,1.75,24.0,18.5368,1.0,257015.0074,19.3376,5.0,2.0
374.0,777.676,778.482,0.0,0.0,0.0,100.0,,,,,25.0,2.5,3.0,25.0,19.3422,0.0,257015.8128,20.143,5.0,2.0
375.0,778.482,779.289,0.0,0.0,0.0,100.0,,,,,26.0,3.5,3.75,26.0,20.147,1.0,257016.6175,20.9478,5.0,2.0
376.0,779.289,780.094,0.0,0.0,0.0,100.0,,,,,27.0,2.5,1.25,27.0,20.9521,1.0,257017.4227,21.7529,5.0,2.0
377.0,780.094,780.901,0.0,0.0,0.0,100.0,,,,,28.0,1.25,1.75,28.0,21.7573,1.0,257018.2278,22.5581,5.0,2.0
378.0,780.901,781.705,0.0,0.0,0.0,100.0,,,,,29.0,3.5,1.75,29.0,22.5627,0.0,257019.0333,23.3636,5.0,2.0
379.0,781.705,782.512,0.0,0.0,0.0,100.0,,,,,30.0,3.25,1.5,30.0,23.3682,0.0,257019.8388,24.169,5.0,2.0
380.0,782.512,783.317,0.0,0.0,0.0,100.0,,,,,31.0,3.75,2.0,31.0,24.1736,1.0,257020.6442,24.9745,5.0,2.0
381.0,783.317,784.122,0.0,0.0,0.0,100.0,,,,,32.0,1.5,1.75,32.0,24.9788,0.0,257021.4494,25.7796,5.0,2.0
382.0,784.122,784.927,0.0,0.0,0.0,100.0,,,,,33.0,2.75,2.25,33.0,25.7848,0.0,257022.2554,26.5856,5.0,2.0
383.0,784.927,785.732,0.0,0.0,0.0,100.0,,,,,34.0,2.0,3.25,34.0,26.5902,0.0,257023.0608,27.3911,5.0,2.0
384.0,785.732,786.537,0.0,0.0,0.0,100.0,,,,,35.0,2.75,2.5,35.0,27.396,0.0,257023.8666,28.1968,5.0,2.0
385.0,786.537,787.342,0.0,0.0,0.0,100.0,,,,,36.0,3.75,1.75,36.0,28.2014,0.0,257024.6721,29.0023,5.0,2.0
386.0,787.342,788.148,0.0,0.0,0.0,100.0,,,,,37.0,3.25,3.25,37.0,29.0071,1.0,257025.4778,29.8081,5.0,2.0
387.0,788.148,788.953,0.0,0.0,0.0,100.0,,,,,38.0,2.0,2.5,38.0,29.8134,0.0,257026.284,30.6142,5.0,2.0
388.0,788.953,789.758,0.0,0.0,0.0,100.0,,,,,39.0,1.0,1.0,39.0,30.6185,1.0,257027.0891,31.4193,5.0,2.0
389.0,789.758,790.562,0.0,0.0,0.0,100.0,,,,,40.0,2.5,3.25,40.0,31.4239,0.0,257027.8945,32.2248,5.0,2.0
390.0,790.562,791.368,0.0,0.0,0.0,100.0,,,,,41.0,3.75,1.25,41.0,32.2294,0.0,257028.6999,33.0302,5.0,2.0
391.0,791.368,792.173,0.0,0.0,0.0,100.0,,,,,42.0,2.5,2.25,42.0,33.0341,1.0,257029.5047,33.8349,5.0,2.0
392.0,792.173,792.978,0.0,0.0,0.0,100.0,,,,,43.0,1.0,2.0,43.0,33.8392,1.0,257030.3104,34.6407,5.0,2.0
393.0,792.978,793.785,0.0,0.0,0.0,100.0,,,,,44.0,1.25,3.25,44.0,34.6447,0.0,257031.1153,35.4456,5.0,2.0
394.0,793.785,794.591,0.0,0.0,0.0,100.0,,,,,45.0,1.75,2.5,45.0,35.4495,0.0,257031.9201,36.2503,5.0,2.0
395.0,794.591,795.396,0.0,0.0,0.0,100.0,,,,,46.0,1.25,2.75,46.0,36.2547,1.0,257032.7253,37.0555,5.0,2.0
396.0,795.396,796.201,0.0,0.0,0.0,100.0,,,,,47.0,1.75,2.75,47.0,37.0601,1.0,257033.5308,37.861,5.0,2.0
397.0,796.201,797.006,0.0,0.0,0.0,100.0,,,,,48.0,3.0,3.0,48.0,37.8659,0.0,257034.3365,38.6667,5.0,2.0
398.0,797.006,797.811,0.0,0.0,0.0,100.0,,,,,49.0,2.25,1.25,49.0,38.6716,0.0,257035.1422,39.4724,5.0,2.0
399.0,797.811,798.616,0.0,0.0,0.0,100.0,,,,,50.0,1.5,3.5,50.0,39.477,0.0,257035.9525,40.2828,5.0,2.0
400.0,798.616,799.422,0.0,0.0,0.0,100.0,,,,,51.0,1.25,3.25,51.0,40.2861,1.0,257036.7566,41.0868,5.0,2.0
401.0,799.422,800.228,0.0,0.0,0.0,100.0,,,,,52.0,2.5,3.75,52.0,41.0907,0.0,257037.5613,41.8915,5.0,2.0
402.0,800.228,801.033,0.0,0.0,0.0,100.0,,,,,53.0,1.0,2.25,53.0,41.8963,0.0,257038.3669,42.6971,5.0,2.0
403.0,801.033,801.838,0.0,0.0,0.0,100.0,,,,,54.0,1.25,3.75,54.0,42.7018,0.0,257039.1724,43.5027,5.0,2.0
404.0,801.838,802.643,0.0,0.0,0.0,100.0,,,,,55.0,1.0,3.25,55.0,43.5073,0.0,257039.9779,44.3081,5.0,2.0
405.0,802.643,803.449,0.0,0.0,0.0,100.0,,,,,56.0,3.25,3.5,56.0,44.3127,0.0,257040.7833,45.1135,5.0,2.0
406.0,803.449,804.255,0.0,0.0,0.0,100.0,,,,,57.0,1.25,2.0,57.0,45.1181,0.0,257041.5887,45.919,5.0,2.0
407.0,804.255,805.06,0.0,0.0,0.0,100.0,,,,,58.0,1.75,3.25,58.0,45.9234,1.0,257042.394,46.7242,5.0,2.0
408.0,805.06,805.865,0.0,0.0,0.0,100.0,,,,,59.0,2.25,3.5,59.0,46.7288,0.0,257043.1993,47.5296,5.0,2.0
409.0,805.865,806.67,0.0,0.0,0.0,100.0,,,,,60.0,1.5,1.75,60.0,47.534,1.0,257044.0044,48.3346,5.0,2.0
410.0,806.67,807.475,0.0,0.0,0.0,100.0,,,,,61.0,1.25,1.25,61.0,48.3386,0.0,257044.8093,49.1395,5.0,2.0
411.0,807.475,808.281,0.0,0.0,0.0,100.0,,,,,62.0,3.5,2.5,62.0,49.1439,1.0,257045.6145,49.9447,5.0,2.0
412.0,808.281,809.086,0.0,0.0,0.0,100.0,,,,,63.0,2.5,1.25,63.0,49.9491,1.0,257046.4195,50.7497,5.0,2.0
413.0,809.086,809.891,0.0,0.0,0.0,100.0,,,,,64.0,3.5,2.75,64.0,50.7536,0.0,257047.2242,51.5544,5.0,2.0
414.0,809.891,810.696,0.0,0.0,0.0,100.0,,,,,65.0,2.0,2.5,65.0,51.5589,1.0,257048.0296,52.3598,5.0,2.0
415.0,810.696,811.501,0.0,0.0,0.0,100.0,,,,,66.0,2.0,1.0,66.0,52.3647,1.0,257048.8351,53.1653,5.0,2.0
416.0,811.501,812.308,0.0,0.0,0.0,100.0,,,,,67.0,1.5,1.25,67.0,53.1693,1.0,257049.64,53.9702,5.0,2.0
417.0,812.308,813.113,0.0,0.0,0.0,100.0,,,,,68.0,1.5,1.5,68.0,53.9747,0.0,257050.4451,54.7753,5.0,2.0
418.0,813.113,813.918,0.0,0.0,0.0,100.0,,,,,69.0,2.25,1.0,69.0,54.7797,0.0,257051.2503,55.5805,5.0,2.0
419.0,813.918,814.724,0.0,0.0,0.0,100.0,,,,,70.0,3.5,3.75,70.0,55.5853,1.0,257052.0557,56.3859,5.0,2.0
420.0,814.724,815.529,0.0,0.0,0.0,100.0,,,,,71.0,2.25,2.25,71.0,56.3899,1.0,257052.8603,57.1905,5.0,2.0
421.0,815.529,816.335,0.0,0.0,0.0,100.0,,,,,72.0,2.0,3.5,72.0,57.1944,0.0,257053.6649,57.9951,5.0,2.0
422.0,816.335,817.14,0.0,0.0,0.0,100.0,,,,,73.0,2.0,1.25,73.0,58.0008,1.0,257054.4713,58.8015,5.0,2.0
423.0,817.14,817.947,0.0,0.0,0.0,100.0,,,,,74.0,3.25,2.0,74.0,58.8054,1.0,257055.276,59.6062,5.0,2.0
424.0,817.947,818.752,0.0,0.0,0.0,100.0,,,,,75.0,1.5,2.0,75.0,59.6108,1.0,257056.0814,60.4116,5.0,2.0
425.0,818.752,819.557,0.0,0.0,0.0,100.0,,,,,76.0,1.25,1.25,76.0,60.416,1.0,257056.8867,61.217,5.0,2.0
426.0,819.557,820.362,0.0,0.0,0.0,100.0,,,,,77.0,3.75,3.75,77.0,61.2209,1.0,257057.6915,62.0218,5.0,2.0
427.0,820.362,821.169,0.0,0.0,0.0,100.0,,,,,78.0,2.5,1.0,78.0,62.0262,1.0,257058.4968,62.8271,5.0,2.0
428.0,821.169,821.974,0.0,0.0,0.0,100.0,,,,,79.0,1.5,2.0,79.0,62.8315,1.0,257059.3021,63.6323,5.0,2.0
429.0,821.974,822.779,0.0,0.0,0.0,100.0,,,,,80.0,3.25,1.0,80.0,63.6369,0.0,257060.1075,64.4377,5.0,2.0
430.0,822.779,823.584,0.0,0.0,0.0,100.0,,,,,81.0,1.0,1.5,81.0,64.4426,0.0,257060.9133,65.2435,5.0,2.0
431.0,823.584,824.39,0.0,0.0,0.0,100.0,,,,,82.0,2.75,3.0,82.0,65.2484,1.0,257061.7191,66.0494,5.0,2.0
432.0,824.39,825.195,0.0,0.0,0.0,100.0,,,,,83.0,2.75,2.25,83.0,66.0543,1.0,257062.5249,66.8551,5.0,2.0
433.0,825.195,826.0,0.0,0.0,0.0,100.0,,,,,84.0,2.5,1.75,84.0,66.8605,0.0,257063.3311,67.6613,5.0,2.0
434.0,826.0,826.805,0.0,0.0,0.0,100.0,,,,,85.0,3.0,1.5,85.0,67.6658,1.0,257064.1364,68.4666,5.0,2.0
435.0,826.805,827.611,0.0,0.0,0.0,100.0,,,,,86.0,3.0,1.5,86.0,68.4711,1.0,257064.9416,69.2718,5.0,2.0
436.0,827.611,828.415,0.0,0.0,0.0,100.0,,,,,87.0,2.0,2.75,87.0,69.276,0.0,257065.7467,70.0769,5.0,2.0
437.0,828.415,829.221,0.0,0.0,0.0,100.0,,,,,88.0,3.25,1.0,88.0,70.0812,1.0,257066.5518,70.882,5.0,2.0
438.0,829.221,830.026,0.0,0.0,0.0,100.0,,,,,89.0,3.75,3.25,89.0,70.8862,1.0,257067.3567,71.6869,5.0,2.0
439.0,830.026,830.832,0.0,0.0,0.0,100.0,,,,,90.0,2.25,2.25,90.0,71.6908,1.0,257068.1614,72.4917,5.0,2.0
440.0,830.832,831.637,0.0,0.0,0.0,100.0,,,,,91.0,2.25,1.75,91.0,72.4975,1.0,257068.9681,73.2983,5.0,2.0
441.0,831.637,832.442,0.0,0.0,0.0,100.0,,,,,92.0,2.5,2.5,92.0,73.3037,1.0,257069.7742,74.1044,5.0,2.0
442.0,832.442,833.248,0.0,0.0,0.0,100.0,,,,,93.0,3.25,3.25,93.0,74.1083,1.0,257070.5789,74.9092,5.0,2.0
443.0,833.248,834.053,0.0,0.0,0.0,100.0,,,,,94.0,2.75,2.0,94.0,74.9132,0.0,257071.3836,75.7138,5.0,2.0
444.0,834.053,834.858,0.0,0.0,0.0,100.0,,,,,95.0,3.25,2.5,95.0,75.7182,1.0,257072.1888,76.519,5.0,2.0
445.0,834.858,835.663,0.0,0.0,0.0,100.0,,,,,96.0,2.0,3.75,96.0,76.5235,1.0,257072.994,77.3243,5.0,2.0
446.0,835.663,836.469,0.0,0.0,0.0,100.0,,,,,97.0,3.5,2.5,97.0,77.3292,0.0,257073.7998,78.13,5.0,2.0
447.0,836.469,837.274,0.0,0.0,0.0,100.0,,,,,98.0,2.75,2.75,98.0,78.1344,0.0,257074.6049,78.9351,5.0,2.0
448.0,837.274,838.079,0.0,0.0,0.0,100.0,,,,,99.0,1.5,1.75,99.0,78.939,1.0,257075.4096,79.7399,5.0,2.0
