Trial number,Fixation Onset NEV,Image Onset NEV,Stim on/off NEV,Stim onset NEV,Stim offset NEV,Response value NEV,Reaction onset NEV,Congruent Value NEV,Valence Value NEV,Reaction time NEV,TrialNum,Delay1,Delay2,TrialComplete,TimeImageOnset,Noname,ColorLev,TimeTrial,BlockNumber,noname,noname,noname,noname,noname,TrialTypeDesignation
1.0,3351.431,3351.939,0.0,0.0,0.0,100.0,,,,,1.0,3.25,1.25,1.0,,,0.0,,1.0,,,,,,1.0
2.0,3352.577,3353.089,0.0,0.0,0.0,100.0,,,,,2.0,2.25,3.5,2.0,,,0.0,,1.0,,,,,,1.0
3.0,3354.846,3355.35,0.0,0.0,0.0,100.0,,,,,3.0,3.25,3.75,3.0,,,0.0,,1.0,,,,,,1.0
4.0,3357.232,3357.737,0.0,0.0,0.0,100.0,,,1.0,,4.0,2.75,1.0,4.0,,,1.0,,1.0,,,,,,1.0
5.0,3358.247,3358.753,0.0,0.0,0.0,100.0,,,,,5.0,3.5,3.75,5.0,,,0.0,,1.0,,,,,,1.0
6.0,3360.635,3361.138,0.0,0.0,0.0,100.0,,,1.0,,6.0,3.0,3.25,6.0,,,1.0,,1.0,,,,,,1.0
7.0,3362.768,3363.272,0.0,0.0,0.0,100.0,,,1.0,,7.0,3.0,2.0,7.0,,,1.0,,1.0,,,,,,1.0
8.0,3364.276,3364.778,0.0,0.0,0.0,100.0,,,1.0,,8.0,2.75,1.5,8.0,,,1.0,,1.0,,,,,,1.0
9.0,3365.533,3366.038,0.0,0.0,0.0,100.0,,,,,9.0,3.0,1.0,9.0,,,0.0,,1.0,,,,,,1.0
10.0,3366.543,3367.046,0.0,0.0,0.0,100.0,,,1.0,,10.0,1.75,1.0,10.0,,,1.0,,1.0,,,,,,1.0
11.0,3367.551,3368.054,0.0,0.0,0.0,100.0,,,,,11.0,1.25,3.25,11.0,,,0.0,,1.0,,,,,,1.0
12.0,3369.683,3370.187,0.0,0.0,0.0,100.0,,,1.0,,12.0,3.0,1.75,12.0,,,1.0,,1.0,,,,,,1.0
13.0,3371.067,3371.571,0.0,0.0,0.0,100.0,,,,,13.0,3.75,1.0,13.0,,,0.0,,1.0,,,,,,1.0
14.0,3372.075,3372.578,0.0,0.0,0.0,100.0,,,,,14.0,2.25,2.0,14.0,,,0.0,,1.0,,,,,,1.0
15.0,3373.583,3374.087,0.0,0.0,0.0,100.0,,,,,15.0,3.25,3.25,15.0,,,0.0,,1.0,,,,,,1.0
16.0,3375.716,3376.22,0.0,0.0,0.0,100.0,,,,,16.0,1.5,2.25,16.0,,,0.0,,1.0,,,,,,1.0
17.0,3377.349,3377.854,0.0,0.0,0.0,100.0,,,,,17.0,2.25,2.75,17.0,,,0.0,,1.0,,,,,,1.0
18.0,3379.234,3379.738,0.0,0.0,0.0,100.0,,,,,18.0,3.0,3.25,18.0,,,0.0,,1.0,,,,,,1.0
19.0,3381.367,3381.87,0.0,0.0,0.0,100.0,,,1.0,,19.0,1.75,3.0,19.0,,,1.0,,1.0,,,,,,1.0
20.0,3383.375,3383.879,0.0,0.0,0.0,100.0,,,,,20.0,2.75,1.25,20.0,,,0.0,,1.0,,,,,,1.0
21.0,3384.508,3385.011,0.0,0.0,0.0,100.0,,,,,21.0,1.25,2.25,21.0,,,0.0,,1.0,,,,,,1.0
22.0,3386.14,3386.643,0.0,0.0,0.0,100.0,,,1.0,,22.0,3.75,2.0,22.0,,,1.0,,1.0,,,,,,1.0
23.0,3387.647,3388.151,0.0,0.0,0.0,100.0,,,,,23.0,2.75,1.5,23.0,,,0.0,,1.0,,,,,,1.0
24.0,3388.905,3389.409,0.0,0.0,0.0,100.0,,,1.0,,24.0,3.25,1.75,24.0,,,1.0,,1.0,,,,,,1.0
25.0,3390.288,3390.792,0.0,0.0,0.0,100.0,,,,,25.0,2.5,3.0,25.0,,,0.0,,1.0,,,,,,1.0
26.0,3392.296,3392.8,0.0,0.0,0.0,100.0,,,1.0,,26.0,3.5,3.75,26.0,,,1.0,,1.0,,,,,,1.0
27.0,3394.68,3395.183,0.0,0.0,0.0,100.0,,,1.0,,27.0,2.5,1.25,27.0,,,1.0,,1.0,,,,,,1.0
28.0,3395.813,3396.316,0.0,0.0,0.0,100.0,,,1.0,,28.0,1.25,1.75,28.0,,,1.0,,1.0,,,,,,1.0
29.0,3397.195,3397.698,0.0,0.0,0.0,100.0,,,,,29.0,3.5,1.75,29.0,,,0.0,,1.0,,,,,,1.0
30.0,3398.578,3399.082,0.0,0.0,0.0,100.0,,,,,30.0,3.25,1.5,30.0,,,0.0,,1.0,,,,,,1.0
31.0,3399.836,3400.34,0.0,0.0,0.0,100.0,,,1.0,,31.0,3.75,2.0,31.0,,,1.0,,1.0,,,,,,1.0
32.0,3401.344,3401.847,0.0,0.0,0.0,100.0,,,,,32.0,1.5,1.75,32.0,,,0.0,,1.0,,,,,,1.0
33.0,3402.727,3403.231,0.0,0.0,0.0,100.0,,,,,33.0,2.75,2.25,33.0,,,0.0,,1.0,,,,,,1.0
34.0,3404.36,3404.863,0.0,0.0,0.0,100.0,,,,,34.0,2.0,3.25,34.0,,,0.0,,1.0,,,,,,1.0
35.0,3406.493,3406.996,0.0,0.0,0.0,100.0,,,,,35.0,2.75,2.5,35.0,,,0.0,,1.0,,,,,,1.0
36.0,3408.251,3408.754,0.0,0.0,0.0,100.0,,,,,36.0,3.75,1.75,36.0,,,0.0,,1.0,,,,,,1.0
37.0,3409.634,3410.138,0.0,0.0,0.0,100.0,,,1.0,,37.0,3.25,3.25,37.0,,,1.0,,1.0,,,,,,1.0
38.0,3411.768,3412.272,0.0,0.0,0.0,100.0,,,,,38.0,2.0,2.5,38.0,,,0.0,,1.0,,,,,,1.0
39.0,3413.527,3414.03,0.0,0.0,0.0,100.0,,,1.0,,39.0,1.0,1.0,39.0,,,1.0,,1.0,,,,,,1.0
40.0,3414.535,3415.038,0.0,0.0,0.0,100.0,,,,,40.0,2.5,3.25,40.0,,,0.0,,1.0,,,,,,1.0
41.0,3416.669,3417.172,0.0,0.0,0.0,100.0,,,,,41.0,3.75,1.25,41.0,,,0.0,,1.0,,,,,,1.0
42.0,3417.801,3418.305,0.0,0.0,0.0,100.0,,,1.0,,42.0,2.5,2.25,42.0,,,1.0,,1.0,,,,,,1.0
43.0,3419.433,3419.938,0.0,0.0,0.0,100.0,,,1.0,,43.0,1.0,2.0,43.0,,,1.0,,1.0,,,,,,1.0
44.0,3420.942,3421.447,0.0,0.0,0.0,100.0,,,,,44.0,1.25,3.25,44.0,,,0.0,,1.0,,,,,,1.0
45.0,3423.077,3423.58,0.0,0.0,0.0,100.0,,,,,45.0,1.75,2.5,45.0,,,0.0,,1.0,,,,,,1.0
46.0,3424.835,3425.338,0.0,0.0,0.0,100.0,,,1.0,,46.0,1.25,2.75,46.0,,,1.0,,1.0,,,,,,1.0
47.0,3426.718,3427.222,0.0,0.0,0.0,100.0,,,1.0,,47.0,1.75,2.75,47.0,,,1.0,,1.0,,,,,,1.0
48.0,3428.602,3429.106,0.0,0.0,0.0,100.0,,,,,48.0,3.0,3.0,48.0,,,0.0,,1.0,,,,,,1.0
49.0,3430.61,3431.114,0.0,0.0,0.0,100.0,,,,,49.0,2.25,1.25,49.0,,,0.0,,1.0,,,,,,1.0
50.0,3431.743,3432.246,0.0,0.0,0.0,100.0,,,,,50.0,1.5,3.5,50.0,,,0.0,,1.0,,,,,,1.0
51.0,3434.001,3434.504,0.0,0.0,0.0,100.0,,,1.0,,51.0,1.25,3.25,51.0,,,1.0,,1.0,,,,,,1.0
52.0,3436.133,3436.636,0.0,0.0,0.0,100.0,,,,,52.0,2.5,3.75,52.0,,,0.0,,1.0,,,,,,1.0
53.0,3438.518,3439.022,0.0,0.0,0.0,100.0,,,,,53.0,1.0,2.25,53.0,,,0.0,,1.0,,,,,,1.0
54.0,3440.152,3440.657,0.0,0.0,0.0,100.0,,,,,54.0,1.25,3.75,54.0,,,0.0,,1.0,,,,,,1.0
55.0,3442.536,3443.039,0.0,0.0,0.0,100.0,,,,,55.0,1.0,3.25,55.0,,,0.0,,1.0,,,,,,1.0
56.0,3444.668,3445.172,0.0,0.0,0.0,100.0,,,,,56.0,3.25,3.5,56.0,,,0.0,,1.0,,,,,,1.0
57.0,3446.927,3447.431,0.0,0.0,0.0,100.0,,,,,57.0,1.25,2.0,57.0,,,0.0,,1.0,,,,,,1.0
58.0,3448.435,3448.938,0.0,0.0,0.0,100.0,,,1.0,,58.0,1.75,3.25,58.0,,,1.0,,1.0,,,,,,1.0
59.0,3450.568,3451.07,0.0,0.0,0.0,100.0,,,,,59.0,2.25,3.5,59.0,,,0.0,,1.0,,,,,,1.0
60.0,3452.824,3453.329,0.0,0.0,0.0,100.0,,,1.0,,60.0,1.5,1.75,60.0,,,1.0,,1.0,,,,,,1.0
61.0,3454.208,3454.712,0.0,0.0,0.0,100.0,,,,,61.0,1.25,1.25,61.0,,,0.0,,1.0,,,,,,1.0
62.0,3455.342,3455.846,0.0,0.0,0.0,100.0,,,1.0,,62.0,3.5,2.5,62.0,,,1.0,,1.0,,,,,,1.0
63.0,3457.1,3457.604,0.0,0.0,0.0,100.0,,,1.0,,63.0,2.5,1.25,63.0,,,1.0,,1.0,,,,,,1.0
64.0,3458.233,3458.736,0.0,0.0,0.0,100.0,,,,,64.0,3.5,2.75,64.0,,,0.0,,1.0,,,,,,1.0
65.0,3460.115,3460.619,0.0,0.0,0.0,100.0,,,1.0,,65.0,2.0,2.5,65.0,,,1.0,,1.0,,,,,,1.0
66.0,3461.874,3462.378,0.0,0.0,0.0,100.0,,,1.0,,66.0,2.0,1.0,66.0,,,1.0,,1.0,,,,,,1.0
67.0,3462.882,3463.385,0.0,0.0,0.0,100.0,,,1.0,,67.0,1.5,1.25,67.0,,,1.0,,1.0,,,,,,1.0
68.0,3464.015,3464.519,0.0,0.0,0.0,100.0,,,,,68.0,1.5,1.5,68.0,,,0.0,,1.0,,,,,,1.0
69.0,3465.274,3465.777,0.0,0.0,0.0,100.0,,,,,69.0,2.25,1.0,69.0,,,0.0,,1.0,,,,,,1.0
70.0,3466.281,3466.785,0.0,0.0,0.0,100.0,,,1.0,,70.0,3.5,3.75,70.0,,,1.0,,1.0,,,,,,1.0
71.0,3468.664,3469.168,0.0,0.0,0.0,100.0,,,1.0,,71.0,2.25,2.25,71.0,,,1.0,,1.0,,,,,,1.0
72.0,3470.298,3470.802,0.0,0.0,0.0,100.0,,,,,72.0,2.0,3.5,72.0,,,0.0,,1.0,,,,,,1.0
73.0,3472.557,3473.06,0.0,0.0,0.0,100.0,,,1.0,,73.0,2.0,1.25,73.0,,,1.0,,1.0,,,,,,1.0
74.0,3473.689,3474.192,0.0,0.0,0.0,100.0,,,1.0,,74.0,3.25,2.0,74.0,,,1.0,,1.0,,,,,,1.0
75.0,3475.197,3475.701,0.0,0.0,0.0,100.0,,,1.0,,75.0,1.5,2.0,75.0,,,1.0,,1.0,,,,,,1.0
76.0,3476.706,3477.21,0.0,0.0,0.0,100.0,,,1.0,,76.0,1.25,1.25,76.0,,,1.0,,1.0,,,,,,1.0
77.0,3477.839,3478.342,0.0,0.0,0.0,100.0,,,1.0,,77.0,3.75,3.75,77.0,,,1.0,,1.0,,,,,,1.0
78.0,3480.223,3480.726,0.0,0.0,0.0,100.0,,,1.0,,78.0,2.5,1.0,78.0,,,1.0,,1.0,,,,,,1.0
79.0,3481.231,3481.734,0.0,0.0,0.0,100.0,,,1.0,,79.0,1.5,2.0,79.0,,,1.0,,1.0,,,,,,1.0
80.0,3482.739,3483.242,0.0,0.0,0.0,100.0,,,,,80.0,3.25,1.0,80.0,,,0.0,,1.0,,,,,,1.0
81.0,3483.747,3484.25,0.0,0.0,0.0,100.0,,,,,81.0,1.0,1.5,81.0,,,0.0,,1.0,,,,,,1.0
82.0,3485.005,3485.508,0.0,0.0,0.0,100.0,,,1.0,,82.0,2.75,3.0,82.0,,,1.0,,1.0,,,,,,1.0
83.0,3487.013,3487.516,0.0,0.0,0.0,100.0,,,1.0,,83.0,2.75,2.25,83.0,,,1.0,,1.0,,,,,,1.0
84.0,3488.647,3489.15,0.0,0.0,0.0,100.0,,,,,84.0,2.5,1.75,84.0,,,0.0,,1.0,,,,,,1.0
85.0,3490.029,3490.533,0.0,0.0,0.0,100.0,,,1.0,,85.0,3.0,1.5,85.0,,,1.0,,1.0,,,,,,1.0
86.0,3491.287,3491.791,0.0,0.0,0.0,100.0,,,1.0,,86.0,3.0,1.5,86.0,,,1.0,,1.0,,,,,,1.0
87.0,3492.546,3493.049,0.0,0.0,0.0,100.0,,,,,87.0,2.0,2.75,87.0,,,0.0,,1.0,,,,,,1.0
88.0,3494.428,3494.931,0.0,0.0,0.0,100.0,,,1.0,,88.0,3.25,1.0,88.0,,,1.0,,1.0,,,,,,1.0
89.0,3495.436,3495.94,0.0,0.0,0.0,100.0,,,1.0,,89.0,3.75,3.25,89.0,,,1.0,,1.0,,,,,,1.0
90.0,3497.569,3498.076,0.0,0.0,0.0,100.0,,,1.0,,90.0,2.25,2.25,90.0,,,1.0,,1.0,,,,,,1.0
91.0,3499.207,3499.712,0.0,0.0,0.0,100.0,,,1.0,,91.0,2.25,1.75,91.0,,,1.0,,1.0,,,,,,1.0
92.0,3500.591,3501.094,0.0,0.0,0.0,100.0,,,1.0,,92.0,2.5,2.5,92.0,,,1.0,,1.0,,,,,,1.0
93.0,3502.348,3502.852,0.0,0.0,0.0,100.0,,,1.0,,93.0,3.25,3.25,93.0,,,1.0,,1.0,,,,,,1.0
94.0,3504.482,3504.985,0.0,0.0,0.0,100.0,,,,,94.0,2.75,2.0,94.0,,,0.0,,1.0,,,,,,1.0
95.0,3505.99,3506.494,0.0,0.0,0.0,100.0,,,1.0,,95.0,3.25,2.5,95.0,,,1.0,,1.0,,,,,,1.0
96.0,3507.748,3508.251,0.0,0.0,0.0,100.0,,,1.0,,96.0,2.0,3.75,96.0,,,1.0,,1.0,,,,,,1.0
97.0,3510.131,3510.634,0.0,0.0,0.0,100.0,,,,,97.0,3.5,2.5,97.0,,,0.0,,1.0,,,,,,1.0
98.0,3511.888,3512.391,0.0,0.0,0.0,100.0,,,,,98.0,2.75,2.75,98.0,,,0.0,,1.0,,,,,,1.0
99.0,3513.77,3514.275,0.0,0.0,0.0,100.0,,,1.0,,99.0,1.5,1.75,99.0,,,1.0,,1.0,,,,,,1.0
100.0,3515.154,3515.658,0.0,0.0,0.0,100.0,,,1.0,,100.0,2.25,1.5,100.0,,,1.0,,1.0,,,,,,1.0
101.0,3700.865,3700.869,0.0,0.0,0.0,100.0,,,1.0,,1.0,3.25,1.25,1.0,,,1.0,,2.0,,,,,,2.0
102.0,3701.671,3701.675,0.0,0.0,0.0,100.0,,,1.0,,2.0,2.25,3.5,2.0,,,1.0,,2.0,,,,,,2.0
103.0,3702.477,3702.481,0.0,0.0,0.0,100.0,,,1.0,,3.0,3.25,3.75,3.0,,,1.0,,2.0,,,,,,2.0
104.0,3703.282,3703.289,0.0,0.0,0.0,100.0,,,1.0,,4.0,2.75,1.0,4.0,,,1.0,,2.0,,,,,,2.0
105.0,3704.092,3704.096,0.0,0.0,0.0,100.0,,,1.0,,5.0,3.5,3.75,5.0,,,1.0,,2.0,,,,,,2.0
106.0,3704.897,3704.9,0.0,0.0,0.0,100.0,,,1.0,,6.0,3.0,3.25,6.0,,,1.0,,2.0,,,,,,2.0
107.0,3705.701,3705.705,0.0,0.0,0.0,100.0,,,1.0,,7.0,3.0,2.0,7.0,,,1.0,,2.0,,,,,,2.0
108.0,3706.506,3706.509,0.0,0.0,0.0,100.0,,,1.0,,8.0,2.75,1.5,8.0,,,1.0,,2.0,,,,,,2.0
109.0,3707.311,3707.314,0.0,0.0,0.0,100.0,,,1.0,,9.0,3.0,1.0,9.0,,,1.0,,2.0,,,,,,2.0
110.0,3708.115,3708.119,0.0,0.0,0.0,100.0,,,1.0,,10.0,1.75,1.0,10.0,,,1.0,,2.0,,,,,,2.0
111.0,3708.92,3708.923,0.0,0.0,0.0,100.0,,,1.0,,11.0,1.25,3.25,11.0,,,1.0,,2.0,,,,,,2.0
112.0,3709.725,3709.728,0.0,0.0,0.0,100.0,,,1.0,,12.0,3.0,1.75,12.0,,,1.0,,2.0,,,,,,2.0
113.0,3710.529,3710.532,0.0,0.0,0.0,100.0,,,1.0,,13.0,3.75,1.0,13.0,,,1.0,,2.0,,,,,,2.0
114.0,3711.333,3711.337,0.0,0.0,0.0,100.0,,,1.0,,14.0,2.25,2.0,14.0,,,1.0,,2.0,,,,,,2.0
115.0,3712.138,3712.141,0.0,0.0,0.0,100.0,,,1.0,,15.0,3.25,3.25,15.0,,,1.0,,2.0,,,,,,2.0
116.0,3712.942,3712.945,0.0,0.0,0.0,100.0,,,1.0,,16.0,1.5,2.25,16.0,,,1.0,,2.0,,,,,,2.0
117.0,3713.746,3713.75,0.0,0.0,0.0,100.0,,,1.0,,17.0,2.25,2.75,17.0,,,1.0,,2.0,,,,,,2.0
118.0,3714.551,3714.554,0.0,0.0,0.0,100.0,,,1.0,,18.0,3.0,3.25,18.0,,,1.0,,2.0,,,,,,2.0
119.0,3715.355,3715.358,0.0,0.0,0.0,100.0,,,1.0,,19.0,1.75,3.0,19.0,,,1.0,,2.0,,,,,,2.0
120.0,3716.16,3716.164,0.0,0.0,0.0,100.0,,,1.0,,20.0,2.75,1.25,20.0,,,1.0,,2.0,,,,,,2.0
121.0,3716.965,3716.97,0.0,0.0,0.0,100.0,,,1.0,,21.0,1.25,2.25,21.0,,,1.0,,2.0,,,,,,2.0
122.0,3717.771,3717.774,0.0,0.0,0.0,100.0,,,1.0,,22.0,3.75,2.0,22.0,,,1.0,,2.0,,,,,,2.0
123.0,3718.575,3718.579,0.0,0.0,0.0,100.0,,,1.0,,23.0,2.75,1.5,23.0,,,1.0,,2.0,,,,,,2.0
124.0,3719.38,3719.384,0.0,0.0,0.0,100.0,,,1.0,,24.0,3.25,1.75,24.0,,,1.0,,2.0,,,,,,2.0
125.0,3720.185,3720.188,0.0,0.0,0.0,100.0,,,1.0,,25.0,2.5,3.0,25.0,,,1.0,,2.0,,,,,,2.0
126.0,3720.989,3720.993,0.0,0.0,0.0,100.0,,,1.0,,26.0,3.5,3.75,26.0,,,1.0,,2.0,,,,,,2.0
127.0,3721.794,3721.797,0.0,0.0,0.0,100.0,,,1.0,,27.0,2.5,1.25,27.0,,,1.0,,2.0,,,,,,2.0
128.0,3722.598,3722.601,0.0,0.0,0.0,100.0,,,1.0,,28.0,1.25,1.75,28.0,,,1.0,,2.0,,,,,,2.0
129.0,3723.402,3723.406,0.0,0.0,0.0,100.0,,,1.0,,29.0,3.5,1.75,29.0,,,1.0,,2.0,,,,,,2.0
130.0,3724.207,3724.21,0.0,0.0,0.0,100.0,,,1.0,,30.0,3.25,1.5,30.0,,,1.0,,2.0,,,,,,2.0
131.0,3725.011,3725.015,0.0,0.0,0.0,100.0,,,1.0,,31.0,3.75,2.0,31.0,,,1.0,,2.0,,,,,,2.0
132.0,3725.816,3725.82,0.0,0.0,0.0,100.0,,,1.0,,32.0,1.5,1.75,32.0,,,1.0,,2.0,,,,,,2.0
133.0,3726.622,3726.625,0.0,0.0,0.0,100.0,,,1.0,,33.0,2.75,2.25,33.0,,,1.0,,2.0,,,,,,2.0
134.0,3727.426,3727.432,0.0,0.0,0.0,100.0,,,1.0,,34.0,2.0,3.25,34.0,,,1.0,,2.0,,,,,,2.0
135.0,3728.232,3728.236,0.0,0.0,0.0,100.0,,,1.0,,35.0,2.75,2.5,35.0,,,1.0,,2.0,,,,,,2.0
136.0,3729.038,3729.042,0.0,0.0,0.0,100.0,,,1.0,,36.0,3.75,1.75,36.0,,,1.0,,2.0,,,,,,2.0
137.0,3729.843,3729.848,0.0,0.0,0.0,100.0,,,1.0,,37.0,3.25,3.25,37.0,,,1.0,,2.0,,,,,,2.0
138.0,3730.649,3730.653,0.0,0.0,0.0,100.0,,,1.0,,38.0,2.0,2.5,38.0,,,1.0,,2.0,,,,,,2.0
139.0,3731.454,3731.457,0.0,0.0,0.0,100.0,,,1.0,,39.0,1.0,1.0,39.0,,,1.0,,2.0,,,,,,2.0
140.0,3732.259,3732.262,0.0,0.0,0.0,100.0,,,1.0,,40.0,2.5,3.25,40.0,,,1.0,,2.0,,,,,,2.0
141.0,3733.063,3733.068,0.0,0.0,0.0,100.0,,,1.0,,41.0,3.75,1.25,41.0,,,1.0,,2.0,,,,,,2.0
142.0,3733.87,3733.874,0.0,0.0,0.0,100.0,,,1.0,,42.0,2.5,2.25,42.0,,,1.0,,2.0,,,,,,2.0
143.0,3734.675,3734.679,0.0,0.0,0.0,100.0,,,1.0,,43.0,1.0,2.0,43.0,,,1.0,,2.0,,,,,,2.0
144.0,3735.48,3735.484,0.0,0.0,0.0,100.0,,,1.0,,44.0,1.25,3.25,44.0,,,1.0,,2.0,,,,,,2.0
145.0,3736.285,3736.288,0.0,0.0,0.0,100.0,,,1.0,,45.0,1.75,2.5,45.0,,,1.0,,2.0,,,,,,2.0
146.0,3737.09,3737.094,0.0,0.0,0.0,100.0,,,1.0,,46.0,1.25,2.75,46.0,,,1.0,,2.0,,,,,,2.0
147.0,3737.895,3737.898,0.0,0.0,0.0,100.0,,,1.0,,47.0,1.75,2.75,47.0,,,1.0,,2.0,,,,,,2.0
148.0,3738.7,3738.703,0.0,0.0,0.0,100.0,,,1.0,,48.0,3.0,3.0,48.0,,,1.0,,2.0,,,,,,2.0
149.0,3739.505,3739.508,0.0,0.0,0.0,100.0,,,1.0,,49.0,2.25,1.25,49.0,,,1.0,,2.0,,,,,,2.0
150.0,3740.309,3740.313,0.0,0.0,0.0,100.0,,,1.0,,50.0,1.5,3.5,50.0,,,1.0,,2.0,,,,,,2.0
151.0,3741.114,3741.117,0.0,0.0,0.0,100.0,,,1.0,,51.0,1.25,3.25,51.0,,,1.0,,2.0,,,,,,2.0
152.0,3741.918,3741.922,0.0,0.0,0.0,100.0,,,1.0,,52.0,2.5,3.75,52.0,,,1.0,,2.0,,,,,,2.0
153.0,3742.724,3742.727,0.0,0.0,0.0,100.0,,,1.0,,53.0,1.0,2.25,53.0,,,1.0,,2.0,,,,,,2.0
154.0,3743.528,3743.531,0.0,0.0,0.0,100.0,,,1.0,,54.0,1.25,3.75,54.0,,,1.0,,2.0,,,,,,2.0
155.0,3744.332,3744.336,0.0,0.0,0.0,100.0,,,1.0,,55.0,1.0,3.25,55.0,,,1.0,,2.0,,,,,,2.0
156.0,3745.137,3745.14,0.0,0.0,0.0,100.0,,,1.0,,56.0,3.25,3.5,56.0,,,1.0,,2.0,,,,,,2.0
157.0,3745.941,3745.944,0.0,0.0,0.0,100.0,,,1.0,,57.0,1.25,2.0,57.0,,,1.0,,2.0,,,,,,2.0
158.0,3746.745,3746.749,0.0,0.0,0.0,100.0,,,1.0,,58.0,1.75,3.25,58.0,,,1.0,,2.0,,,,,,2.0
159.0,3747.55,3747.554,0.0,0.0,0.0,100.0,,,1.0,,59.0,2.25,3.5,59.0,,,1.0,,2.0,,,,,,2.0
160.0,3748.355,3748.358,0.0,0.0,0.0,100.0,,,1.0,,60.0,1.5,1.75,60.0,,,1.0,,2.0,,,,,,2.0
161.0,3749.16,3749.164,0.0,0.0,0.0,100.0,,,1.0,,61.0,1.25,1.25,61.0,,,1.0,,2.0,,,,,,2.0
162.0,3749.965,3749.968,0.0,0.0,0.0,100.0,,,1.0,,62.0,3.5,2.5,62.0,,,1.0,,2.0,,,,,,2.0
163.0,3750.77,3750.773,0.0,0.0,0.0,100.0,,,1.0,,63.0,2.5,1.25,63.0,,,1.0,,2.0,,,,,,2.0
164.0,3751.574,3751.577,0.0,0.0,0.0,100.0,,,1.0,,64.0,3.5,2.75,64.0,,,1.0,,2.0,,,,,,2.0
165.0,3752.378,3752.382,0.0,0.0,0.0,100.0,,,1.0,,65.0,2.0,2.5,65.0,,,1.0,,2.0,,,,,,2.0
166.0,3753.183,3753.187,0.0,0.0,0.0,100.0,,,1.0,,66.0,2.0,1.0,66.0,,,1.0,,2.0,,,,,,2.0
167.0,3753.988,3753.991,0.0,0.0,0.0,100.0,,,1.0,,67.0,1.5,1.25,67.0,,,1.0,,2.0,,,,,,2.0
168.0,3754.792,3754.796,0.0,0.0,0.0,100.0,,,1.0,,68.0,1.5,1.5,68.0,,,1.0,,2.0,,,,,,2.0
169.0,3755.597,3755.601,0.0,0.0,0.0,100.0,,,1.0,,69.0,2.25,1.0,69.0,,,1.0,,2.0,,,,,,2.0
170.0,3756.402,3756.405,0.0,0.0,0.0,100.0,,,1.0,,70.0,3.5,3.75,70.0,,,1.0,,2.0,,,,,,2.0
171.0,3757.206,3757.21,0.0,0.0,0.0,100.0,,,1.0,,71.0,2.25,2.25,71.0,,,1.0,,2.0,,,,,,2.0
172.0,3758.011,3758.014,0.0,0.0,0.0,100.0,,,1.0,,72.0,2.0,3.5,72.0,,,1.0,,2.0,,,,,,2.0
173.0,3758.815,3758.819,0.0,0.0,0.0,100.0,,,1.0,,73.0,2.0,1.25,73.0,,,1.0,,2.0,,,,,,2.0
174.0,3759.62,3759.624,0.0,0.0,0.0,100.0,,,1.0,,74.0,3.25,2.0,74.0,,,1.0,,2.0,,,,,,2.0
175.0,3760.425,3760.428,0.0,0.0,0.0,100.0,,,1.0,,75.0,1.5,2.0,75.0,,,1.0,,2.0,,,,,,2.0
176.0,3761.229,3761.232,0.0,0.0,0.0,100.0,,,1.0,,76.0,1.25,1.25,76.0,,,1.0,,2.0,,,,,,2.0
177.0,3762.033,3762.037,0.0,0.0,0.0,100.0,,,1.0,,77.0,3.75,3.75,77.0,,,1.0,,2.0,,,,,,2.0
178.0,3762.838,3762.841,0.0,0.0,0.0,100.0,,,1.0,,78.0,2.5,1.0,78.0,,,1.0,,2.0,,,,,,2.0
179.0,3763.642,3763.645,0.0,0.0,0.0,100.0,,,1.0,,79.0,1.5,2.0,79.0,,,1.0,,2.0,,,,,,2.0
180.0,3764.446,3764.45,0.0,0.0,0.0,100.0,,,1.0,,80.0,3.25,1.0,80.0,,,1.0,,2.0,,,,,,2.0
181.0,3765.251,3765.256,0.0,0.0,0.0,100.0,,,1.0,,81.0,1.0,1.5,81.0,,,1.0,,2.0,,,,,,2.0
182.0,3766.057,3766.06,0.0,0.0,0.0,100.0,,,1.0,,82.0,2.75,3.0,82.0,,,1.0,,2.0,,,,,,2.0
183.0,3766.861,3766.864,0.0,0.0,0.0,100.0,,,1.0,,83.0,2.75,2.25,83.0,,,1.0,,2.0,,,,,,2.0
184.0,3767.666,3767.669,0.0,0.0,0.0,100.0,,,1.0,,84.0,2.5,1.75,84.0,,,1.0,,2.0,,,,,,2.0
185.0,3768.47,3768.474,0.0,0.0,0.0,100.0,,,1.0,,85.0,3.0,1.5,85.0,,,1.0,,2.0,,,,,,2.0
186.0,3769.275,3769.278,0.0,0.0,0.0,100.0,,,1.0,,86.0,3.0,1.5,86.0,,,1.0,,2.0,,,,,,2.0
187.0,3770.08,3770.084,0.0,0.0,0.0,100.0,,,1.0,,87.0,2.0,2.75,87.0,,,1.0,,2.0,,,,,,2.0
188.0,3770.885,3770.889,0.0,0.0,0.0,100.0,,,1.0,,88.0,3.25,1.0,88.0,,,1.0,,2.0,,,,,,2.0
189.0,3771.689,3771.693,0.0,0.0,0.0,100.0,,,1.0,,89.0,3.75,3.25,89.0,,,1.0,,2.0,,,,,,2.0
190.0,3772.494,3772.497,0.0,0.0,0.0,100.0,,,1.0,,90.0,2.25,2.25,90.0,,,1.0,,2.0,,,,,,2.0
191.0,3773.298,3773.302,0.0,0.0,0.0,100.0,,,1.0,,91.0,2.25,1.75,91.0,,,1.0,,2.0,,,,,,2.0
192.0,3774.103,3774.106,0.0,0.0,0.0,100.0,,,1.0,,92.0,2.5,2.5,92.0,,,1.0,,2.0,,,,,,2.0
193.0,3774.908,3774.911,0.0,0.0,0.0,100.0,,,1.0,,93.0,3.25,3.25,93.0,,,1.0,,2.0,,,,,,2.0
194.0,3775.712,3775.715,0.0,0.0,0.0,100.0,,,1.0,,94.0,2.75,2.0,94.0,,,1.0,,2.0,,,,,,2.0
195.0,3776.516,3776.52,0.0,0.0,0.0,100.0,,,1.0,,95.0,3.25,2.5,95.0,,,1.0,,2.0,,,,,,2.0
196.0,3777.321,3777.324,0.0,0.0,0.0,100.0,,,1.0,,96.0,2.0,3.75,96.0,,,1.0,,2.0,,,,,,2.0
197.0,3778.126,3778.129,0.0,0.0,0.0,100.0,,,1.0,,97.0,3.5,2.5,97.0,,,1.0,,2.0,,,,,,2.0
198.0,3778.93,3778.933,0.0,0.0,0.0,100.0,,,1.0,,98.0,2.75,2.75,98.0,,,1.0,,2.0,,,,,,2.0
199.0,3779.734,3779.737,0.0,0.0,0.0,100.0,,,1.0,,99.0,1.5,1.75,99.0,,,1.0,,2.0,,,,,,2.0
200.0,3780.538,3809.261,0.0,0.0,0.0,100.0,,,1.0,,100.0,2.25,1.5,100.0,,,1.0,,2.0,,,,,,2.0
201.0,3810.062,3810.065,0.0,0.0,0.0,100.0,,,1.0,,1.0,3.25,1.25,1.0,,,1.0,,3.0,,,,,,2.0
202.0,3810.867,3810.87,0.0,0.0,0.0,100.0,,,1.0,,2.0,2.25,3.5,2.0,,,1.0,,3.0,,,,,,2.0
203.0,3811.672,3811.675,0.0,0.0,0.0,100.0,,,1.0,,3.0,3.25,3.75,3.0,,,1.0,,3.0,,,,,,2.0
204.0,3812.476,3812.48,0.0,0.0,0.0,100.0,,,1.0,,4.0,2.75,1.0,4.0,,,1.0,,3.0,,,,,,2.0
205.0,3813.281,3813.285,0.0,0.0,0.0,100.0,,,1.0,,5.0,3.5,3.75,5.0,,,1.0,,3.0,,,,,,2.0
206.0,3814.086,3814.089,0.0,0.0,0.0,100.0,,,1.0,,6.0,3.0,3.25,6.0,,,1.0,,3.0,,,,,,2.0
207.0,3814.89,3814.894,0.0,0.0,0.0,100.0,,,1.0,,7.0,3.0,2.0,7.0,,,1.0,,3.0,,,,,,2.0
208.0,3815.696,3815.699,0.0,0.0,0.0,100.0,,,1.0,,8.0,2.75,1.5,8.0,,,1.0,,3.0,,,,,,2.0
209.0,3816.5,3816.504,0.0,0.0,0.0,100.0,,,1.0,,9.0,3.0,1.0,9.0,,,1.0,,3.0,,,,,,2.0
210.0,3817.305,3817.309,0.0,0.0,0.0,100.0,,,1.0,,10.0,1.75,1.0,10.0,,,1.0,,3.0,,,,,,2.0
211.0,3818.11,3818.114,0.0,0.0,0.0,100.0,,,1.0,,11.0,1.25,3.25,11.0,,,1.0,,3.0,,,,,,2.0
212.0,3818.914,3818.917,0.0,0.0,0.0,100.0,,,1.0,,12.0,3.0,1.75,12.0,,,1.0,,3.0,,,,,,2.0
213.0,3819.718,3819.721,0.0,0.0,0.0,100.0,,,1.0,,13.0,3.75,1.0,13.0,,,1.0,,3.0,,,,,,2.0
214.0,3820.523,3820.526,0.0,0.0,0.0,100.0,,,1.0,,14.0,2.25,2.0,14.0,,,1.0,,3.0,,,,,,2.0
215.0,3821.327,3821.331,0.0,0.0,0.0,100.0,,,1.0,,15.0,3.25,3.25,15.0,,,1.0,,3.0,,,,,,2.0
216.0,3822.132,3822.136,0.0,0.0,0.0,100.0,,,1.0,,16.0,1.5,2.25,16.0,,,1.0,,3.0,,,,,,2.0
217.0,3822.937,3822.941,0.0,0.0,0.0,100.0,,,1.0,,17.0,2.25,2.75,17.0,,,1.0,,3.0,,,,,,2.0
218.0,3823.742,3823.745,0.0,0.0,0.0,100.0,,,1.0,,18.0,3.0,3.25,18.0,,,1.0,,3.0,,,,,,2.0
219.0,3824.546,3824.55,0.0,0.0,0.0,100.0,,,1.0,,19.0,1.75,3.0,19.0,,,1.0,,3.0,,,,,,2.0
220.0,3825.351,3825.354,0.0,0.0,0.0,100.0,,,1.0,,20.0,2.75,1.25,20.0,,,1.0,,3.0,,,,,,2.0
221.0,3826.155,3826.159,0.0,0.0,0.0,100.0,,,1.0,,21.0,1.25,2.25,21.0,,,1.0,,3.0,,,,,,2.0
222.0,3826.96,3826.964,0.0,0.0,0.0,100.0,,,1.0,,22.0,3.75,2.0,22.0,,,1.0,,3.0,,,,,,2.0
223.0,3827.764,3827.767,0.0,0.0,0.0,100.0,,,1.0,,23.0,2.75,1.5,23.0,,,1.0,,3.0,,,,,,2.0
224.0,3828.569,3828.572,0.0,0.0,0.0,100.0,,,1.0,,24.0,3.25,1.75,24.0,,,1.0,,3.0,,,,,,2.0
225.0,3829.373,3829.377,0.0,0.0,0.0,100.0,,,1.0,,25.0,2.5,3.0,25.0,,,1.0,,3.0,,,,,,2.0
226.0,3830.178,3830.182,0.0,0.0,0.0,100.0,,,1.0,,26.0,3.5,3.75,26.0,,,1.0,,3.0,,,,,,2.0
227.0,3830.983,3830.986,0.0,0.0,0.0,100.0,,,1.0,,27.0,2.5,1.25,27.0,,,1.0,,3.0,,,,,,2.0
228.0,3831.787,3831.79,0.0,0.0,0.0,100.0,,,1.0,,28.0,1.25,1.75,28.0,,,1.0,,3.0,,,,,,2.0
229.0,3832.592,3832.595,0.0,0.0,0.0,100.0,,,1.0,,29.0,3.5,1.75,29.0,,,1.0,,3.0,,,,,,2.0
230.0,3833.396,3833.399,0.0,0.0,0.0,100.0,,,1.0,,30.0,3.25,1.5,30.0,,,1.0,,3.0,,,,,,2.0
231.0,3834.2,3834.203,0.0,0.0,0.0,100.0,,,1.0,,31.0,3.75,2.0,31.0,,,1.0,,3.0,,,,,,2.0
232.0,3835.005,3835.007,0.0,0.0,0.0,100.0,,,1.0,,32.0,1.5,1.75,32.0,,,1.0,,3.0,,,,,,2.0
233.0,3835.808,3835.811,0.0,0.0,0.0,100.0,,,1.0,,33.0,2.75,2.25,33.0,,,1.0,,3.0,,,,,,2.0
234.0,3836.613,3836.616,0.0,0.0,0.0,100.0,,,1.0,,34.0,2.0,3.25,34.0,,,1.0,,3.0,,,,,,2.0
235.0,3837.418,3837.421,0.0,0.0,0.0,100.0,,,1.0,,35.0,2.75,2.5,35.0,,,1.0,,3.0,,,,,,2.0
236.0,3838.223,3838.226,0.0,0.0,0.0,100.0,,,1.0,,36.0,3.75,1.75,36.0,,,1.0,,3.0,,,,,,2.0
237.0,3839.027,3839.03,0.0,0.0,0.0,100.0,,,1.0,,37.0,3.25,3.25,37.0,,,1.0,,3.0,,,,,,2.0
238.0,3839.831,3839.835,0.0,0.0,0.0,100.0,,,1.0,,38.0,2.0,2.5,38.0,,,1.0,,3.0,,,,,,2.0
239.0,3840.636,3840.64,0.0,0.0,0.0,100.0,,,1.0,,39.0,1.0,1.0,39.0,,,1.0,,3.0,,,,,,2.0
240.0,3841.441,3841.444,0.0,0.0,0.0,100.0,,,1.0,,40.0,2.5,3.25,40.0,,,1.0,,3.0,,,,,,2.0
241.0,3842.246,3842.25,0.0,0.0,0.0,100.0,,,1.0,,41.0,3.75,1.25,41.0,,,1.0,,3.0,,,,,,2.0
242.0,3843.051,3843.055,0.0,0.0,0.0,100.0,,,1.0,,42.0,2.5,2.25,42.0,,,1.0,,3.0,,,,,,2.0
243.0,3843.856,3843.859,0.0,0.0,0.0,100.0,,,1.0,,43.0,1.0,2.0,43.0,,,1.0,,3.0,,,,,,2.0
244.0,3844.661,3844.664,0.0,0.0,0.0,100.0,,,1.0,,44.0,1.25,3.25,44.0,,,1.0,,3.0,,,,,,2.0
245.0,3845.465,3845.468,0.0,0.0,0.0,100.0,,,1.0,,45.0,1.75,2.5,45.0,,,1.0,,3.0,,,,,,2.0
246.0,3846.269,3846.273,0.0,0.0,0.0,100.0,,,1.0,,46.0,1.25,2.75,46.0,,,1.0,,3.0,,,,,,2.0
247.0,3847.074,3847.077,0.0,0.0,0.0,100.0,,,1.0,,47.0,1.75,2.75,47.0,,,1.0,,3.0,,,,,,2.0
248.0,3847.878,3847.882,0.0,0.0,0.0,100.0,,,1.0,,48.0,3.0,3.0,48.0,,,1.0,,3.0,,,,,,2.0
249.0,3848.683,3848.686,0.0,0.0,0.0,100.0,,,1.0,,49.0,2.25,1.25,49.0,,,1.0,,3.0,,,,,,2.0
250.0,3849.487,3849.49,0.0,0.0,0.0,100.0,,,1.0,,50.0,1.5,3.5,50.0,,,1.0,,3.0,,,,,,2.0
251.0,3850.291,3850.295,0.0,0.0,0.0,100.0,,,1.0,,51.0,1.25,3.25,51.0,,,1.0,,3.0,,,,,,2.0
252.0,3851.096,3851.099,0.0,0.0,0.0,100.0,,,1.0,,52.0,2.5,3.75,52.0,,,1.0,,3.0,,,,,,2.0
253.0,3851.9,3851.903,0.0,0.0,0.0,100.0,,,1.0,,53.0,1.0,2.25,53.0,,,1.0,,3.0,,,,,,2.0
254.0,3852.704,3852.708,0.0,0.0,0.0,100.0,,,1.0,,54.0,1.25,3.75,54.0,,,1.0,,3.0,,,,,,2.0
255.0,3853.509,3853.514,0.0,0.0,0.0,100.0,,,1.0,,55.0,1.0,3.25,55.0,,,1.0,,3.0,,,,,,2.0
256.0,3854.315,3854.318,0.0,0.0,0.0,100.0,,,1.0,,56.0,3.25,3.5,56.0,,,1.0,,3.0,,,,,,2.0
257.0,3855.12,3855.123,0.0,0.0,0.0,100.0,,,1.0,,57.0,1.25,2.0,57.0,,,1.0,,3.0,,,,,,2.0
258.0,3855.924,3855.927,0.0,0.0,0.0,100.0,,,1.0,,58.0,1.75,3.25,58.0,,,1.0,,3.0,,,,,,2.0
259.0,3856.728,3856.731,0.0,0.0,0.0,100.0,,,1.0,,59.0,2.25,3.5,59.0,,,1.0,,3.0,,,,,,2.0
260.0,3857.532,3857.536,0.0,0.0,0.0,100.0,,,1.0,,60.0,1.5,1.75,60.0,,,1.0,,3.0,,,,,,2.0
261.0,3858.337,3858.341,0.0,0.0,0.0,100.0,,,1.0,,61.0,1.25,1.25,61.0,,,1.0,,3.0,,,,,,2.0
262.0,3859.142,3859.145,0.0,0.0,0.0,100.0,,,1.0,,62.0,3.5,2.5,62.0,,,1.0,,3.0,,,,,,2.0
263.0,3859.946,3859.949,0.0,0.0,0.0,100.0,,,1.0,,63.0,2.5,1.25,63.0,,,1.0,,3.0,,,,,,2.0
264.0,3860.751,3860.754,0.0,0.0,0.0,100.0,,,1.0,,64.0,3.5,2.75,64.0,,,1.0,,3.0,,,,,,2.0
265.0,3861.555,3861.558,0.0,0.0,0.0,100.0,,,1.0,,65.0,2.0,2.5,65.0,,,1.0,,3.0,,,,,,2.0
266.0,3862.36,3862.363,0.0,0.0,0.0,100.0,,,1.0,,66.0,2.0,1.0,66.0,,,1.0,,3.0,,,,,,2.0
267.0,3863.165,3863.169,0.0,0.0,0.0,100.0,,,1.0,,67.0,1.5,1.25,67.0,,,1.0,,3.0,,,,,,2.0
268.0,3863.969,3863.973,0.0,0.0,0.0,100.0,,,1.0,,68.0,1.5,1.5,68.0,,,1.0,,3.0,,,,,,2.0
269.0,3864.774,3864.777,0.0,0.0,0.0,100.0,,,1.0,,69.0,2.25,1.0,69.0,,,1.0,,3.0,,,,,,2.0
270.0,3865.578,3865.581,0.0,0.0,0.0,100.0,,,1.0,,70.0,3.5,3.75,70.0,,,1.0,,3.0,,,,,,2.0
271.0,3866.382,3866.385,0.0,0.0,0.0,100.0,,,1.0,,71.0,2.25,2.25,71.0,,,1.0,,3.0,,,,,,2.0
272.0,3867.186,3867.189,0.0,0.0,0.0,100.0,,,1.0,,72.0,2.0,3.5,72.0,,,1.0,,3.0,,,,,,2.0
273.0,3867.99,3867.993,0.0,0.0,0.0,100.0,,,1.0,,73.0,2.0,1.25,73.0,,,1.0,,3.0,,,,,,2.0
274.0,3868.794,3868.798,0.0,0.0,0.0,100.0,,,1.0,,74.0,3.25,2.0,74.0,,,1.0,,3.0,,,,,,2.0
275.0,3869.599,3869.604,0.0,0.0,0.0,100.0,,,1.0,,75.0,1.5,2.0,75.0,,,1.0,,3.0,,,,,,2.0
276.0,3870.405,3870.409,0.0,0.0,0.0,100.0,,,1.0,,76.0,1.25,1.25,76.0,,,1.0,,3.0,,,,,,2.0
277.0,3871.21,3871.213,0.0,0.0,0.0,100.0,,,1.0,,77.0,3.75,3.75,77.0,,,1.0,,3.0,,,,,,2.0
278.0,3872.014,3872.017,0.0,0.0,0.0,100.0,,,1.0,,78.0,2.5,1.0,78.0,,,1.0,,3.0,,,,,,2.0
279.0,3872.819,3872.822,0.0,0.0,0.0,100.0,,,1.0,,79.0,1.5,2.0,79.0,,,1.0,,3.0,,,,,,2.0
280.0,3873.624,3873.626,0.0,0.0,0.0,100.0,,,1.0,,80.0,3.25,1.0,80.0,,,1.0,,3.0,,,,,,2.0
281.0,3874.428,3874.431,0.0,0.0,0.0,100.0,,,1.0,,81.0,1.0,1.5,81.0,,,1.0,,3.0,,,,,,2.0
282.0,3875.232,3875.238,0.0,0.0,0.0,100.0,,,1.0,,82.0,2.75,3.0,82.0,,,1.0,,3.0,,,,,,2.0
283.0,3876.039,3876.042,0.0,0.0,0.0,100.0,,,1.0,,83.0,2.75,2.25,83.0,,,1.0,,3.0,,,,,,2.0
284.0,3876.844,3876.848,0.0,0.0,0.0,100.0,,,1.0,,84.0,2.5,1.75,84.0,,,1.0,,3.0,,,,,,2.0
285.0,3877.65,3877.654,0.0,0.0,0.0,100.0,,,1.0,,85.0,3.0,1.5,85.0,,,1.0,,3.0,,,,,,2.0
286.0,3878.455,3878.458,0.0,0.0,0.0,100.0,,,1.0,,86.0,3.0,1.5,86.0,,,1.0,,3.0,,,,,,2.0
287.0,3879.258,3879.262,0.0,0.0,0.0,100.0,,,1.0,,87.0,2.0,2.75,87.0,,,1.0,,3.0,,,,,,2.0
288.0,3880.063,3880.066,0.0,0.0,0.0,100.0,,,1.0,,88.0,3.25,1.0,88.0,,,1.0,,3.0,,,,,,2.0
289.0,3880.867,3880.871,0.0,0.0,0.0,100.0,,,1.0,,89.0,3.75,3.25,89.0,,,1.0,,3.0,,,,,,2.0
290.0,3881.672,3881.675,0.0,0.0,0.0,100.0,,,1.0,,90.0,2.25,2.25,90.0,,,1.0,,3.0,,,,,,2.0
291.0,3882.477,3882.481,0.0,0.0,0.0,100.0,,,1.0,,91.0,2.25,1.75,91.0,,,1.0,,3.0,,,,,,2.0
292.0,3883.282,3883.285,0.0,0.0,0.0,100.0,,,1.0,,92.0,2.5,2.5,92.0,,,1.0,,3.0,,,,,,2.0
293.0,3884.087,3884.092,0.0,0.0,0.0,100.0,,,1.0,,93.0,3.25,3.25,93.0,,,1.0,,3.0,,,,,,2.0
294.0,3884.893,3884.897,0.0,0.0,0.0,100.0,,,1.0,,94.0,2.75,2.0,94.0,,,1.0,,3.0,,,,,,2.0
295.0,3885.699,3885.702,0.0,0.0,0.0,100.0,,,1.0,,95.0,3.25,2.5,95.0,,,1.0,,3.0,,,,,,2.0
296.0,3886.503,3886.506,0.0,0.0,0.0,100.0,,,1.0,,96.0,2.0,3.75,96.0,,,1.0,,3.0,,,,,,2.0
297.0,3887.307,3887.31,0.0,0.0,0.0,100.0,,,1.0,,97.0,3.5,2.5,97.0,,,1.0,,3.0,,,,,,2.0
298.0,3888.111,3888.114,0.0,0.0,0.0,100.0,,,1.0,,98.0,2.75,2.75,98.0,,,1.0,,3.0,,,,,,2.0
299.0,3888.915,3888.919,0.0,0.0,0.0,100.0,,,1.0,,99.0,1.5,1.75,99.0,,,1.0,,3.0,,,,,,2.0
300.0,3889.72,4046.017,0.0,0.0,0.0,100.0,,,,,100.0,2.25,1.5,100.0,,,0.0,,3.0,,,,,,2.0
