Trial number,Fixation Onset NEV,Image Onset NEV,Stim on/off NEV,Stim onset NEV,Stim offset NEV,Response value NEV,Reaction onset NEV,Congruent Value NEV,Valence Value NEV,Reaction time NEV,TrialNum,Delay1,Delay2,TrialComplete,TimeImageOnset,ColorLev,TimeRec,TimeTrial,BlockNumber,TrialTypeDesignation
1.0,8.077,9.227,0.0,0.0,0.0,100.0,,1.0,2.0,,1.0,0.8,0.8,1.0,0.53236,0.0,193439.0358,1.1593,1.0,1.0
2.0,9.227,11.51,0.0,0.0,0.0,100.0,,1.0,2.0,,2.0,0.8,0.8,2.0,1.6825,1.0,193441.3103,3.4339,1.0,1.0
3.0,11.51,13.91,0.0,0.0,0.0,100.0,,1.0,2.0,,3.0,0.8,0.8,3.0,3.9654,0.0,193443.7181,5.8416,1.0,1.0
4.0,13.91,14.995,0.0,0.0,0.0,100.0,,1.0,2.0,,4.0,0.8,0.8,4.0,6.3653,0.0,193444.7429,6.8664,1.0,1.0
5.0,14.995,17.41,0.0,0.0,0.0,100.0,,1.0,2.0,,5.0,0.8,0.8,5.0,7.4488,1.0,193447.2045,9.3285,1.0,1.0
6.0,17.41,19.56,0.0,0.0,0.0,100.0,,1.0,2.0,,6.0,0.8,0.8,6.0,9.865,1.0,193449.3673,11.4908,1.0,1.0
7.0,19.56,21.093,0.0,0.0,0.0,100.0,,1.0,2.0,,7.0,0.8,0.8,7.0,12.0148,1.0,193450.8921,13.0156,1.0,1.0
8.0,21.093,22.376,0.0,0.0,0.0,100.0,,1.0,2.0,,8.0,0.8,0.8,8.0,13.5481,1.0,193452.1754,14.2989,1.0,1.0
9.0,22.376,23.41,0.0,0.0,0.0,100.0,,1.0,2.0,,9.0,0.8,0.8,9.0,14.8315,0.0,193453.2087,15.3322,1.0,1.0
10.0,23.41,24.443,0.0,0.0,0.0,100.0,,1.0,2.0,,10.0,0.8,0.8,10.0,15.8646,0.0,193454.2418,16.3653,1.0,1.0
11.0,24.443,26.593,0.0,0.0,0.0,100.0,,1.0,2.0,,11.0,0.8,0.8,11.0,16.8979,1.0,193456.4002,18.5237,1.0,1.0
12.0,26.593,27.993,0.0,0.0,0.0,100.0,,1.0,2.0,,12.0,0.8,0.8,12.0,19.0478,1.0,193457.8,19.9235,1.0,1.0
13.0,27.993,29.026,0.0,0.0,0.0,100.0,,1.0,2.0,,13.0,0.8,0.8,13.0,20.4477,1.0,193458.8249,20.9484,1.0,1.0
14.0,29.026,30.559,0.0,0.0,0.0,100.0,,1.0,2.0,,14.0,0.8,0.8,14.0,21.4809,0.0,193460.3581,22.4817,1.0,1.0
15.0,30.559,32.71,0.0,0.0,0.0,100.0,,1.0,2.0,,15.0,0.8,0.8,15.0,23.014,0.0,193462.5163,24.6398,1.0,1.0
16.0,32.71,34.359,0.0,0.0,0.0,100.0,,1.0,2.0,,16.0,0.8,0.8,16.0,25.164,1.0,193464.1662,26.2897,1.0,1.0
17.0,34.359,36.259,0.0,0.0,0.0,100.0,,1.0,2.0,,17.0,0.8,0.8,17.0,26.8138,0.0,193466.0661,28.1896,1.0,1.0
18.0,36.259,38.41,0.0,0.0,0.0,100.0,,1.0,2.0,,18.0,0.8,0.8,18.0,28.7137,1.0,193468.2159,30.3395,1.0,1.0
19.0,38.41,40.443,0.0,0.0,0.0,100.0,,1.0,2.0,,19.0,0.8,0.8,19.0,30.8635,0.0,193470.2408,32.3644,1.0,1.0
20.0,40.443,41.593,0.0,0.0,0.0,100.0,,1.0,2.0,,20.0,0.8,0.8,20.0,32.8968,1.0,193471.3991,33.5226,1.0,1.0
21.0,41.593,43.243,0.0,0.0,0.0,100.0,,1.0,2.0,,21.0,0.8,0.8,21.0,34.0467,0.0,193473.049,35.1725,1.0,1.0
22.0,43.243,44.776,0.0,0.0,0.0,100.0,,1.0,2.0,,22.0,0.8,0.8,22.0,35.6966,0.0,193474.5739,36.6974,1.0,1.0
23.0,44.776,46.059,0.0,0.0,0.0,100.0,,1.0,2.0,,23.0,0.8,0.8,23.0,37.2299,0.0,193475.8572,37.9807,1.0,1.0
24.0,46.059,47.459,0.0,0.0,0.0,100.0,,1.0,2.0,,24.0,0.8,0.8,24.0,38.513,0.0,193477.2653,39.3888,1.0,1.0
25.0,47.459,49.493,0.0,0.0,0.0,100.0,,1.0,2.0,,25.0,0.8,0.8,25.0,39.9129,1.0,193479.2902,41.4137,1.0,1.0
26.0,49.493,51.893,0.0,0.0,0.0,100.0,,1.0,2.0,,26.0,0.8,0.8,26.0,41.9462,1.0,193481.6985,43.822,1.0,1.0
27.0,51.893,53.043,0.0,0.0,0.0,100.0,,1.0,2.0,,27.0,0.8,0.8,27.0,44.346,0.0,193482.8483,44.9718,1.0,1.0
28.0,53.043,54.443,0.0,0.0,0.0,100.0,,1.0,2.0,,28.0,0.8,0.8,28.0,45.4959,0.0,193484.2482,46.3717,1.0,1.0
29.0,54.443,55.843,0.0,0.0,0.0,100.0,,1.0,2.0,,29.0,0.8,0.8,29.0,46.8958,1.0,193485.6481,47.7716,1.0,1.0
30.0,55.843,57.126,0.0,0.0,0.0,100.0,,1.0,2.0,,30.0,0.8,0.8,30.0,48.2957,1.0,193486.923,49.0465,1.0,1.0
31.0,57.126,58.66,0.0,0.0,0.0,100.0,,1.0,2.0,,31.0,0.8,0.8,31.0,49.579,1.0,193488.4563,50.5798,1.0,1.0
32.0,58.66,60.06,0.0,0.0,0.0,100.0,,1.0,2.0,,32.0,0.8,0.8,32.0,51.1121,1.0,193489.8644,51.9879,1.0,1.0
33.0,60.06,61.71,0.0,0.0,0.0,100.0,,1.0,2.0,,33.0,0.8,0.8,33.0,52.5121,1.0,193491.5143,53.6379,1.0,1.0
34.0,61.71,63.86,0.0,0.0,0.0,100.0,,1.0,2.0,,34.0,0.8,0.8,34.0,54.162,0.0,193493.6642,55.7878,1.0,1.0
35.0,63.86,65.643,0.0,0.0,0.0,100.0,,1.0,2.0,,35.0,0.8,0.8,35.0,56.3118,1.0,193495.4391,57.5626,1.0,1.0
36.0,65.643,67.043,0.0,0.0,0.0,100.0,,1.0,2.0,,36.0,0.8,0.8,36.0,58.0951,1.0,193496.8473,58.9708,1.0,1.0
37.0,67.043,69.193,0.0,0.0,0.0,100.0,,1.0,2.0,,37.0,0.8,0.8,37.0,59.495,1.0,193498.9973,61.1207,1.0,1.0
38.0,69.193,70.976,0.0,0.0,0.0,100.0,,1.0,2.0,,38.0,0.8,0.8,38.0,61.6448,0.0,193500.7721,62.8955,1.0,1.0
39.0,70.976,72.009,0.0,0.0,0.0,100.0,,1.0,2.0,,39.0,0.8,0.8,39.0,63.4281,0.0,193501.8053,63.9288,1.0,1.0
40.0,72.009,74.159,0.0,0.0,0.0,100.0,,1.0,2.0,,40.0,0.8,0.8,40.0,64.4613,0.0,193503.9635,66.087,1.0,1.0
41.0,74.159,75.309,0.0,0.0,0.0,100.0,,1.0,2.0,,41.0,0.8,0.8,41.0,66.611,1.0,193505.1131,67.2367,1.0,1.0
42.0,75.309,76.959,0.0,0.0,0.0,100.0,,1.0,2.0,,42.0,0.8,0.8,42.0,67.761,1.0,193506.7632,68.8867,1.0,1.0
43.0,76.959,78.493,0.0,0.0,0.0,100.0,,1.0,2.0,,43.0,0.8,0.8,43.0,69.4108,0.0,193508.2881,70.4116,1.0,1.0
44.0,78.493,80.643,0.0,0.0,0.0,100.0,,1.0,2.0,,44.0,0.8,0.8,44.0,70.9441,1.0,193510.4464,72.5699,1.0,1.0
45.0,80.643,82.426,0.0,0.0,0.0,100.0,,1.0,2.0,,45.0,0.8,0.8,45.0,73.094,1.0,193512.2212,74.3447,1.0,1.0
46.0,82.426,84.326,0.0,0.0,0.0,100.0,,1.0,2.0,,46.0,0.8,0.8,46.0,74.8773,1.0,193514.1295,76.253,1.0,1.0
47.0,84.326,86.226,0.0,0.0,0.0,100.0,,1.0,2.0,,47.0,0.8,0.8,47.0,76.7771,1.0,193516.0318,78.1553,1.0,1.0
48.0,86.226,88.259,0.0,0.0,0.0,100.0,,1.0,2.0,,48.0,0.8,0.8,48.0,78.677,1.0,193518.0542,80.1777,1.0,1.0
49.0,88.259,89.409,0.0,0.0,0.0,100.0,,1.0,2.0,,49.0,0.8,0.8,49.0,80.7101,0.0,193519.2123,81.3358,1.0,1.0
50.0,89.409,91.693,0.0,0.0,0.0,100.0,,1.0,2.0,,50.0,0.8,0.8,50.0,81.86,1.0,193521.4872,83.6107,1.0,1.0
51.0,91.693,93.843,0.0,0.0,0.0,100.0,,1.0,2.0,,51.0,0.8,0.8,51.0,84.1432,1.0,193523.6454,85.7689,1.0,1.0
52.0,93.843,96.243,0.0,0.0,0.0,100.0,,1.0,2.0,,52.0,0.8,0.8,52.0,86.2931,1.0,193526.0453,88.1688,1.0,1.0
53.0,96.243,97.893,0.0,0.0,0.0,100.0,,1.0,2.0,,53.0,0.8,0.8,53.0,88.6929,0.0,193527.6951,89.8186,1.0,1.0
54.0,97.893,100.293,0.0,0.0,0.0,100.0,,1.0,2.0,,54.0,0.8,0.8,54.0,90.3428,0.0,193530.095,92.2185,1.0,1.0
55.0,100.293,102.443,0.0,0.0,0.0,100.0,,1.0,2.0,,55.0,0.8,0.8,55.0,92.7426,0.0,193532.2448,94.3683,1.0,1.0
56.0,102.443,104.726,0.0,0.0,0.0,100.0,,1.0,2.0,,56.0,0.8,0.8,56.0,94.8925,0.0,193534.5196,96.6431,1.0,1.0
57.0,104.726,106.259,0.0,0.0,0.0,100.0,,1.0,2.0,,57.0,0.8,0.8,57.0,97.1757,1.0,193536.0528,98.1763,1.0,1.0
58.0,106.259,108.409,0.0,0.0,0.0,100.0,,1.0,2.0,,58.0,0.8,0.8,58.0,98.7088,0.0,193538.211,100.3345,1.0,1.0
59.0,108.409,110.693,0.0,0.0,0.0,100.0,,1.0,2.0,,59.0,0.8,0.8,59.0,100.8587,1.0,193540.4858,102.6093,1.0,1.0
60.0,110.693,112.093,0.0,0.0,0.0,100.0,,1.0,2.0,,60.0,0.8,0.8,60.0,103.1419,0.0,193541.894,104.0175,1.0,1.0
61.0,112.093,113.243,0.0,0.0,0.0,100.0,,1.0,2.0,,61.0,0.8,0.8,61.0,104.5418,0.0,193543.0439,105.1674,1.0,1.0
62.0,113.243,115.026,0.0,0.0,0.0,100.0,,1.0,2.0,,62.0,0.8,0.8,62.0,105.6917,0.0,193544.8188,106.9423,1.0,1.0
63.0,115.026,116.176,0.0,0.0,0.0,100.0,,1.0,2.0,,63.0,0.8,0.8,63.0,107.475,1.0,193545.9771,108.1006,1.0,1.0
64.0,116.176,118.076,0.0,0.0,0.0,100.0,,1.0,2.0,,64.0,0.8,0.8,64.0,108.6249,1.0,193547.877,110.0005,1.0,1.0
65.0,118.076,119.859,0.0,0.0,0.0,100.0,,1.0,2.0,,65.0,0.8,0.8,65.0,110.5248,0.0,193549.6519,111.7754,1.0,1.0
66.0,119.859,120.893,0.0,0.0,0.0,100.0,,1.0,2.0,,66.0,0.8,0.8,66.0,112.3079,0.0,193550.685,112.8086,1.0,1.0
67.0,120.893,122.043,0.0,0.0,0.0,100.0,,1.0,2.0,,67.0,0.8,0.8,67.0,113.3412,1.0,193551.8433,113.9668,1.0,1.0
68.0,122.043,123.326,0.0,0.0,0.0,100.0,,1.0,2.0,,68.0,0.8,0.8,68.0,114.4911,1.0,193553.1182,115.2418,1.0,1.0
69.0,123.326,124.359,0.0,0.0,0.0,100.0,,1.0,2.0,,69.0,0.8,0.8,69.0,115.7744,1.0,193554.1516,116.2751,1.0,1.0
70.0,124.359,126.759,0.0,0.0,0.0,100.0,,1.0,2.0,,70.0,0.8,0.8,70.0,116.8076,1.0,193556.5597,118.6832,1.0,1.0
71.0,126.759,128.409,0.0,0.0,0.0,100.0,,1.0,2.0,,71.0,0.8,0.8,71.0,119.2074,1.0,193558.2096,120.3331,1.0,1.0
72.0,128.409,130.693,0.0,0.0,0.0,100.0,,1.0,2.0,,72.0,0.8,0.8,72.0,120.8573,1.0,193560.4845,122.6079,1.0,1.0
73.0,130.693,131.843,0.0,0.0,0.0,100.0,,1.0,2.0,,73.0,0.8,0.8,73.0,123.1405,0.0,193561.6427,123.7662,1.0,1.0
74.0,131.843,133.376,0.0,0.0,0.0,100.0,,1.0,2.0,,74.0,0.8,0.8,74.0,124.2904,1.0,193563.1676,125.2911,1.0,1.0
75.0,133.376,134.909,0.0,0.0,0.0,100.0,,1.0,2.0,,75.0,0.8,0.8,75.0,125.8237,1.0,193564.7009,126.8244,1.0,1.0
76.0,134.909,136.059,0.0,0.0,0.0,100.0,,1.0,2.0,,76.0,0.8,0.8,76.0,127.3569,1.0,193565.859,127.9825,1.0,1.0
77.0,136.059,138.459,0.0,0.0,0.0,100.0,,1.0,2.0,,77.0,0.8,0.8,77.0,128.5068,0.0,193568.2589,130.3824,1.0,1.0
78.0,138.459,139.493,0.0,0.0,0.0,100.0,,1.0,2.0,,78.0,0.8,0.8,78.0,130.9066,0.0,193569.2838,131.4072,1.0,1.0
79.0,139.493,141.026,0.0,0.0,0.0,100.0,,1.0,2.0,,79.0,0.8,0.8,79.0,131.9399,0.0,193570.8171,132.9405,1.0,1.0
80.0,141.026,142.059,0.0,0.0,0.0,100.0,,1.0,2.0,,80.0,0.8,0.8,80.0,133.4732,0.0,193571.8503,133.9738,1.0,1.0
81.0,142.059,143.343,0.0,0.0,0.0,100.0,,1.0,2.0,,81.0,0.8,0.8,81.0,134.5063,0.0,193573.1335,135.257,1.0,1.0
82.0,143.343,145.376,0.0,0.0,0.0,100.0,,1.0,2.0,,82.0,0.8,0.8,82.0,135.7896,1.0,193575.1668,137.2903,1.0,1.0
83.0,145.376,147.026,0.0,0.0,0.0,100.0,,1.0,2.0,,83.0,0.8,0.8,83.0,137.8229,0.0,193576.825,138.9485,1.0,1.0
84.0,147.026,148.426,0.0,0.0,0.0,100.0,,1.0,2.0,,84.0,0.8,0.8,84.0,139.4728,0.0,193578.2249,140.3484,1.0,1.0
85.0,148.426,149.709,0.0,0.0,0.0,100.0,,1.0,2.0,,85.0,0.8,0.8,85.0,140.8727,1.0,193579.4998,141.6233,1.0,1.0
86.0,149.709,150.993,0.0,0.0,0.0,100.0,,1.0,2.0,,86.0,0.8,0.8,86.0,142.1559,1.0,193580.783,142.9065,1.0,1.0
87.0,150.993,152.893,0.0,0.0,0.0,100.0,,1.0,2.0,,87.0,0.8,0.8,87.0,143.4391,0.0,193582.6912,144.8147,1.0,1.0
88.0,152.893,153.926,0.0,0.0,0.0,100.0,,1.0,2.0,,88.0,0.8,0.8,88.0,145.339,0.0,193583.7161,145.8396,1.0,1.0
89.0,153.926,156.076,0.0,0.0,0.0,100.0,,1.0,2.0,,89.0,0.8,0.8,89.0,146.3723,1.0,193585.8744,147.9979,1.0,1.0
90.0,156.076,157.726,0.0,0.0,0.0,100.0,,1.0,2.0,,90.0,0.8,0.8,90.0,148.5222,1.0,193587.5243,149.6478,1.0,1.0
91.0,157.726,159.126,0.0,0.0,0.0,100.0,,1.0,2.0,,91.0,0.8,0.8,91.0,150.172,1.0,193588.9242,151.0476,1.0,1.0
92.0,159.126,160.909,0.0,0.0,0.0,100.0,,1.0,2.0,,92.0,0.8,0.8,92.0,151.572,0.0,193590.6991,152.8226,1.0,1.0
93.0,160.909,163.059,0.0,0.0,0.0,100.0,,1.0,2.0,,93.0,0.8,0.8,93.0,153.3551,1.0,193592.8572,154.9807,1.0,1.0
94.0,163.059,164.593,0.0,0.0,0.0,100.0,,1.0,2.0,,94.0,0.8,0.8,94.0,155.5049,1.0,193594.382,156.5055,1.0,1.0
95.0,164.593,166.376,0.0,0.0,0.0,100.0,,1.0,2.0,,95.0,0.8,0.8,95.0,157.0382,1.0,193596.1653,158.2888,1.0,1.0
96.0,166.376,168.776,0.0,0.0,0.0,100.0,,1.0,2.0,,96.0,0.8,0.8,96.0,158.8214,1.0,193598.5736,160.6971,1.0,1.0
97.0,168.776,170.559,0.0,0.0,0.0,100.0,,1.0,2.0,,97.0,0.8,0.8,97.0,161.2213,1.0,193600.3484,162.4719,1.0,1.0
98.0,170.559,172.459,0.0,0.0,0.0,100.0,,1.0,2.0,,98.0,0.8,0.8,98.0,163.0044,0.0,193602.2565,164.38,1.0,1.0
