Trial number,Fixation Onset NEV,Image Onset NEV,Stim on/off NEV,Stim onset NEV,Stim offset NEV,Response value NEV,Reaction onset NEV,Congruent Value NEV,Valence Value NEV,Reaction time NEV,Noname,TrialNum,Delay1,Delay2,TrialComplete,TimeImageOnset,ColorLev,TimeRec,TimeTrial,BlockNumber,noname,noname,noname,noname,TrialTypeDesignation
1.0,401.677,402.194,0.0,0.0,0.0,100.0,,,1.0,,,1.0,3.25,1.25,1.0,0.55751,1.0,359303.0019,1.1842,1.0,,,,,1.0
2.0,402.828,403.346,0.0,0.0,0.0,100.0,,,0.0,,,2.0,2.25,3.5,2.0,1.709,0.0,359305.2781,3.4604,1.0,,,,,1.0
3.0,405.114,405.631,0.0,0.0,0.0,100.0,,,1.0,,,3.0,3.25,3.75,3.0,3.9945,1.0,359307.6881,5.8703,1.0,,,,,1.0
4.0,407.516,408.033,0.0,0.0,0.0,100.0,,,1.0,,,4.0,2.75,1.0,4.0,6.3968,1.0,359308.7158,6.8981,1.0,,,,,1.0
5.0,408.551,409.069,0.0,0.0,0.0,100.0,,,1.0,,,5.0,3.5,3.75,5.0,7.4312,1.0,359311.1267,9.3091,1.0,,,,,1.0
6.0,410.953,411.47,0.0,0.0,0.0,100.0,,,0.0,,,6.0,3.0,3.25,6.0,9.8335,0.0,359313.2771,11.4593,1.0,,,,,1.0
7.0,413.105,413.622,0.0,0.0,0.0,100.0,,,1.0,,,7.0,3.0,2.0,7.0,11.9856,1.0,359314.8044,12.9866,1.0,,,,,1.0
8.0,414.64,415.157,0.0,0.0,0.0,100.0,,,0.0,,,8.0,2.75,1.5,8.0,13.5204,0.0,359316.0892,14.2713,1.0,,,,,1.0
9.0,415.941,416.458,0.0,0.0,0.0,100.0,,,1.0,,,9.0,3.0,1.0,9.0,14.8218,1.0,359317.1404,15.3226,1.0,,,,,1.0
10.0,416.975,417.493,0.0,0.0,0.0,100.0,,,0.0,,,10.0,1.75,1.0,10.0,15.8562,0.0,359318.1745,16.3567,1.0,,,,,1.0
11.0,418.01,418.527,0.0,0.0,0.0,100.0,,,0.0,,,11.0,1.25,3.25,11.0,16.8906,0.0,359320.3342,18.5164,1.0,,,,,1.0
12.0,420.162,420.679,0.0,0.0,0.0,100.0,,,1.0,,,12.0,3.0,1.75,12.0,19.0427,1.0,359321.7362,19.9184,1.0,,,,,1.0
13.0,421.563,422.081,0.0,0.0,0.0,100.0,,,1.0,,,13.0,3.75,1.0,13.0,20.4441,1.0,359322.7625,20.9447,1.0,,,,,1.0
14.0,422.598,423.115,0.0,0.0,0.0,100.0,,,1.0,,,14.0,2.25,2.0,14.0,21.4785,1.0,359324.2969,22.4791,1.0,,,,,1.0
15.0,424.133,424.65,0.0,0.0,0.0,100.0,,,0.0,,,15.0,3.25,3.25,15.0,23.0134,0.0,359326.457,24.6393,1.0,,,,,1.0
16.0,426.505,427.009,0.0,0.0,0.0,100.0,,,1.0,,,16.0,1.5,2.25,16.0,25.3722,1.0,359328.3155,26.4977,1.0,,,,,1.0
17.0,428.137,428.717,0.0,0.0,0.0,100.0,,,1.0,,,17.0,2.25,2.75,17.0,27.0807,1.0,359330.2745,28.4568,1.0,,,,,1.0
18.0,430.204,430.709,0.0,0.0,0.0,100.0,,,1.0,,,18.0,3.0,3.25,18.0,29.0725,1.0,359332.5163,30.6985,1.0,,,,,1.0
19.0,432.339,432.845,0.0,0.0,0.0,100.0,,,0.0,,,19.0,1.75,3.0,19.0,31.2087,0.0,359334.5274,32.7097,1.0,,,,,1.0
20.0,434.352,434.856,0.0,0.0,0.0,100.0,,,1.0,,,20.0,2.75,1.25,20.0,33.2194,1.0,359335.6627,33.8449,1.0,,,,,1.0
21.0,450.876,451.393,0.0,0.0,0.0,100.0,,,0.0,,,1.0,3.25,1.25,1.0,0.53444,0.0,359352.2004,1.1605,2.0,,,,,1.0
22.0,452.027,452.545,0.0,0.0,0.0,100.0,,,0.0,,,2.0,2.25,3.5,2.0,1.6857,0.0,359354.4766,3.4366,2.0,,,,,1.0
23.0,454.313,454.83,0.0,0.0,0.0,100.0,,,0.0,,,3.0,3.25,3.75,3.0,3.9712,0.0,359356.8871,5.8472,2.0,,,,,1.0
24.0,456.715,457.233,0.0,0.0,0.0,100.0,,,1.0,,,4.0,2.75,1.0,4.0,6.3736,1.0,359357.9142,6.8742,2.0,,,,,1.0
25.0,457.75,458.267,0.0,0.0,0.0,100.0,,,0.0,,,5.0,3.5,3.75,5.0,7.408,0.0,359360.3239,9.2839,2.0,,,,,1.0
26.0,460.152,460.669,0.0,0.0,0.0,100.0,,,1.0,,,6.0,3.0,3.25,6.0,9.8105,1.0,359362.476,11.436,2.0,,,,,1.0
27.0,462.304,462.822,0.0,0.0,0.0,100.0,,,1.0,,,7.0,3.0,2.0,7.0,11.9626,1.0,359364.0035,12.9635,2.0,,,,,1.0
28.0,463.839,464.356,0.0,0.0,0.0,100.0,,,1.0,,,8.0,2.75,1.5,8.0,13.4975,1.0,359365.2884,14.2484,2.0,,,,,1.0
29.0,465.124,465.641,0.0,0.0,0.0,100.0,,,0.0,,,9.0,3.0,1.0,9.0,14.782,0.0,359366.3226,15.2826,2.0,,,,,1.0
30.0,466.158,466.675,0.0,0.0,0.0,100.0,,,1.0,,,10.0,1.75,1.0,10.0,15.8164,1.0,359367.3573,16.3173,2.0,,,,,1.0
31.0,467.193,467.71,0.0,0.0,0.0,100.0,,,0.0,,,11.0,1.25,3.25,11.0,16.8508,0.0,359369.5164,18.4764,2.0,,,,,1.0
32.0,469.345,469.862,0.0,0.0,0.0,100.0,,,1.0,,,12.0,3.0,1.75,12.0,19.003,1.0,359370.9188,19.8788,2.0,,,,,1.0
33.0,470.746,471.263,0.0,0.0,0.0,100.0,,,0.0,,,13.0,3.75,1.0,13.0,20.4043,0.0,359371.9449,20.9049,2.0,,,,,1.0
34.0,471.781,472.298,0.0,0.0,0.0,100.0,,,0.0,,,14.0,2.25,2.0,14.0,21.4387,0.0,359373.4793,22.4393,2.0,,,,,1.0
35.0,473.315,473.833,0.0,0.0,0.0,100.0,,,0.0,,,15.0,3.25,3.25,15.0,22.9735,0.0,359375.6393,24.5993,2.0,,,,,1.0
36.0,475.467,475.985,0.0,0.0,0.0,100.0,,,0.0,,,16.0,1.5,2.25,16.0,25.1257,0.0,359377.2913,26.2513,2.0,,,,,1.0
37.0,477.119,477.636,0.0,0.0,0.0,100.0,,,0.0,,,17.0,2.25,2.75,17.0,26.7772,0.0,359379.193,28.153,2.0,,,,,1.0
38.0,479.021,479.538,0.0,0.0,0.0,100.0,,,0.0,,,18.0,3.0,3.25,18.0,28.6792,0.0,359381.3451,30.305,2.0,,,,,1.0
39.0,481.173,481.69,0.0,0.0,0.0,100.0,,,1.0,,,19.0,1.75,3.0,19.0,30.8314,1.0,359383.3722,32.3323,2.0,,,,,1.0
40.0,483.209,483.726,0.0,0.0,0.0,100.0,,,0.0,,,20.0,2.75,1.25,20.0,32.8668,0.0,359384.5327,33.4927,2.0,,,,,1.0
41.0,484.36,484.877,0.0,0.0,0.0,100.0,,,0.0,,,21.0,1.25,2.25,21.0,34.0179,0.0,359386.1835,35.1435,2.0,,,,,1.0
42.0,486.011,486.529,0.0,0.0,0.0,100.0,,,1.0,,,22.0,3.75,2.0,22.0,35.6696,1.0,359387.71,36.67,2.0,,,,,1.0
43.0,487.546,488.063,0.0,0.0,0.0,100.0,,,0.0,,,23.0,2.75,1.5,23.0,37.2043,0.0,359388.9952,37.9552,2.0,,,,,1.0
44.0,488.831,489.348,0.0,0.0,0.0,100.0,,,1.0,,,24.0,3.25,1.75,24.0,38.4889,1.0,359390.4048,39.3647,2.0,,,,,1.0
45.0,490.232,490.749,0.0,0.0,0.0,100.0,,,0.0,,,25.0,2.5,3.0,25.0,39.8904,0.0,359392.4309,41.3909,2.0,,,,,1.0
46.0,492.268,492.785,0.0,0.0,0.0,100.0,,,1.0,,,26.0,3.5,3.75,26.0,41.9257,1.0,359394.8415,43.8015,2.0,,,,,1.0
47.0,494.67,495.187,0.0,0.0,0.0,100.0,,,1.0,,,27.0,2.5,1.25,27.0,44.3282,1.0,359395.994,44.954,2.0,,,,,1.0
48.0,495.822,496.338,0.0,0.0,0.0,100.0,,,1.0,,,28.0,1.25,1.75,28.0,45.4793,1.0,359397.3949,46.3549,2.0,,,,,1.0
49.0,497.223,497.74,0.0,0.0,0.0,100.0,,,0.0,,,29.0,3.5,1.75,29.0,46.8808,0.0,359398.7966,47.7566,2.0,,,,,1.0
50.0,498.624,499.141,0.0,0.0,0.0,100.0,,,0.0,,,30.0,3.25,1.5,30.0,48.282,0.0,359400.0727,49.0326,2.0,,,,,1.0
51.0,499.909,500.426,0.0,0.0,0.0,100.0,,,1.0,,,31.0,3.75,2.0,31.0,49.567,1.0,359401.6081,50.5681,2.0,,,,,1.0
52.0,501.443,501.961,0.0,0.0,0.0,100.0,,,0.0,,,32.0,1.5,1.75,32.0,51.1015,0.0,359403.0173,51.9772,2.0,,,,,1.0
53.0,502.845,503.362,0.0,0.0,0.0,100.0,,,0.0,,,33.0,2.75,2.25,33.0,52.503,0.0,359404.6687,53.6287,2.0,,,,,1.0
54.0,504.497,505.014,0.0,0.0,0.0,100.0,,,0.0,,,34.0,2.0,3.25,34.0,54.1547,0.0,359406.8204,55.7804,2.0,,,,,1.0
55.0,506.649,507.166,0.0,0.0,0.0,100.0,,,0.0,,,35.0,2.75,2.5,35.0,56.3068,0.0,359408.5976,57.5576,2.0,,,,,1.0
56.0,508.434,508.951,0.0,0.0,0.0,100.0,,,0.0,,,36.0,3.75,1.75,36.0,58.0918,0.0,359410.0076,58.9675,2.0,,,,,1.0
57.0,509.835,510.353,0.0,0.0,0.0,100.0,,,1.0,,,37.0,3.25,3.25,37.0,59.4934,1.0,359412.1591,61.119,2.0,,,,,1.0
58.0,511.987,512.505,0.0,0.0,0.0,100.0,,,0.0,,,38.0,2.0,2.5,38.0,61.6455,0.0,359413.936,62.896,2.0,,,,,1.0
59.0,513.773,514.29,0.0,0.0,0.0,100.0,,,1.0,,,39.0,1.0,1.0,39.0,63.4305,1.0,359414.9713,63.9312,2.0,,,,,1.0
60.0,514.807,515.324,0.0,0.0,0.0,100.0,,,0.0,,,40.0,2.5,3.25,40.0,64.465,0.0,359417.1304,66.0904,2.0,,,,,1.0
61.0,516.959,517.476,0.0,0.0,0.0,100.0,,,0.0,,,41.0,3.75,1.25,41.0,66.6171,0.0,359418.2826,67.2425,2.0,,,,,1.0
62.0,518.11,518.627,0.0,0.0,0.0,100.0,,,1.0,,,42.0,2.5,2.25,42.0,67.7681,1.0,359419.9338,68.8938,2.0,,,,,1.0
63.0,519.762,520.279,0.0,0.0,0.0,100.0,,,1.0,,,43.0,1.0,2.0,43.0,69.4199,1.0,359421.4607,70.4207,2.0,,,,,1.0
64.0,521.297,521.814,0.0,0.0,0.0,100.0,,,0.0,,,44.0,1.25,3.25,44.0,70.9547,0.0,359423.6203,72.5803,2.0,,,,,1.0
65.0,523.449,523.966,0.0,0.0,0.0,100.0,,,0.0,,,45.0,1.75,2.5,45.0,73.1068,0.0,359425.3975,74.3576,2.0,,,,,1.0
66.0,525.234,525.751,0.0,0.0,0.0,100.0,,,1.0,,,46.0,1.25,2.75,46.0,74.8921,1.0,359427.3078,76.2679,2.0,,,,,1.0
67.0,527.136,527.653,0.0,0.0,0.0,100.0,,,1.0,,,47.0,1.75,2.75,47.0,76.7939,1.0,359429.2097,78.1698,2.0,,,,,1.0
68.0,529.038,529.555,0.0,0.0,0.0,100.0,,,0.0,,,48.0,3.0,3.0,48.0,78.6959,0.0,359431.2364,80.1964,2.0,,,,,1.0
69.0,531.073,531.591,0.0,0.0,0.0,100.0,,,0.0,,,49.0,2.25,1.25,49.0,80.7313,0.0,359432.3971,81.3571,2.0,,,,,1.0
70.0,532.225,532.742,0.0,0.0,0.0,100.0,,,0.0,,,50.0,1.5,3.5,50.0,81.8822,0.0,359434.6728,83.6327,2.0,,,,,1.0
71.0,534.51,535.027,0.0,0.0,0.0,100.0,,,1.0,,,51.0,1.25,3.25,51.0,84.168,1.0,359436.8335,85.7935,2.0,,,,,1.0
72.0,536.662,537.179,0.0,0.0,0.0,100.0,,,0.0,,,52.0,2.5,3.75,52.0,86.3201,0.0,359439.2356,88.1956,2.0,,,,,1.0
73.0,539.065,539.582,0.0,0.0,0.0,100.0,,,0.0,,,53.0,1.0,2.25,53.0,88.7226,0.0,359440.8884,89.8484,2.0,,,,,1.0
74.0,540.716,541.233,0.0,0.0,0.0,100.0,,,0.0,,,54.0,1.25,3.75,54.0,90.3741,0.0,359443.2899,92.2499,2.0,,,,,1.0
75.0,543.119,543.636,0.0,0.0,0.0,100.0,,,0.0,,,55.0,1.0,3.25,55.0,92.7765,0.0,359445.442,94.402,2.0,,,,,1.0
76.0,545.271,545.788,0.0,0.0,0.0,100.0,,,0.0,,,56.0,3.25,3.5,56.0,94.9286,0.0,359447.7193,96.6792,2.0,,,,,1.0
77.0,547.556,548.074,0.0,0.0,0.0,100.0,,,0.0,,,57.0,1.25,2.0,57.0,97.2144,0.0,359449.2552,98.2152,2.0,,,,,1.0
78.0,549.091,549.609,0.0,0.0,0.0,100.0,,,1.0,,,58.0,1.75,3.25,58.0,98.7492,1.0,359451.4147,100.3746,2.0,,,,,1.0
79.0,551.243,551.761,0.0,0.0,0.0,100.0,,,0.0,,,59.0,2.25,3.5,59.0,100.9012,0.0,359453.6917,102.6517,2.0,,,,,1.0
80.0,553.529,554.046,0.0,0.0,0.0,100.0,,,1.0,,,60.0,1.5,1.75,60.0,103.187,1.0,359455.1027,104.0627,2.0,,,,,1.0
81.0,554.931,555.448,0.0,0.0,0.0,100.0,,,0.0,,,61.0,1.25,1.25,61.0,104.5884,0.0,359456.2541,105.2141,2.0,,,,,1.0
82.0,556.082,556.599,0.0,0.0,0.0,100.0,,,1.0,,,62.0,3.5,2.5,62.0,105.7394,1.0,359458.0302,106.9901,2.0,,,,,1.0
83.0,557.867,558.384,0.0,0.0,0.0,100.0,,,1.0,,,63.0,2.5,1.25,63.0,107.5245,1.0,359459.1901,108.1501,2.0,,,,,1.0
84.0,559.018,559.535,0.0,0.0,0.0,100.0,,,0.0,,,64.0,3.5,2.75,64.0,108.6757,0.0,359461.0914,110.0514,2.0,,,,,1.0
85.0,560.92,561.437,0.0,0.0,0.0,100.0,,,1.0,,,65.0,2.0,2.5,65.0,110.5776,1.0,359462.8683,111.8283,2.0,,,,,1.0
86.0,562.705,563.222,0.0,0.0,0.0,100.0,,,1.0,,,66.0,2.0,1.0,66.0,112.3628,1.0,359463.9035,112.8635,2.0,,,,,1.0
87.0,563.739,564.257,0.0,0.0,0.0,100.0,,,1.0,,,67.0,1.5,1.25,67.0,113.3972,1.0,359465.0629,114.0229,2.0,,,,,1.0
88.0,564.891,565.408,0.0,0.0,0.0,100.0,,,0.0,,,68.0,1.5,1.5,68.0,114.5483,0.0,359466.3388,115.2988,2.0,,,,,1.0
89.0,566.175,566.692,0.0,0.0,0.0,100.0,,,0.0,,,69.0,2.25,1.0,69.0,115.833,0.0,359467.3736,116.3336,2.0,,,,,1.0
90.0,567.21,567.727,0.0,0.0,0.0,100.0,,,1.0,,,70.0,3.5,3.75,70.0,116.8673,1.0,359469.7829,118.7428,2.0,,,,,1.0
91.0,569.612,570.129,0.0,0.0,0.0,100.0,,,1.0,,,71.0,2.25,2.25,71.0,119.2695,1.0,359471.435,120.395,2.0,,,,,1.0
92.0,571.264,571.781,0.0,0.0,0.0,100.0,,,0.0,,,72.0,2.0,3.5,72.0,120.9213,0.0,359473.712,122.672,2.0,,,,,1.0
93.0,573.549,574.067,0.0,0.0,0.0,100.0,,,1.0,,,73.0,2.0,1.25,73.0,123.207,1.0,359474.8727,123.8327,2.0,,,,,1.0
94.0,574.7,575.218,0.0,0.0,0.0,100.0,,,1.0,,,74.0,3.25,2.0,74.0,124.3581,1.0,359476.3989,125.3589,2.0,,,,,1.0
95.0,576.236,576.752,0.0,0.0,0.0,100.0,,,1.0,,,75.0,1.5,2.0,75.0,125.8928,1.0,359477.9335,126.8934,2.0,,,,,1.0
96.0,577.77,578.287,0.0,0.0,0.0,100.0,,,1.0,,,76.0,1.25,1.25,76.0,127.4279,1.0,359479.0936,128.0536,2.0,,,,,1.0
97.0,578.921,579.438,0.0,0.0,0.0,100.0,,,1.0,,,77.0,3.75,3.75,77.0,128.5789,1.0,359481.4944,130.4544,2.0,,,,,1.0
98.0,581.324,581.841,0.0,0.0,0.0,100.0,,,1.0,,,78.0,2.5,1.0,78.0,130.9813,1.0,359482.5219,131.4819,2.0,,,,,1.0
99.0,582.358,582.875,0.0,0.0,0.0,100.0,,,1.0,,,79.0,1.5,2.0,79.0,132.0157,1.0,359484.0563,133.0162,2.0,,,,,1.0
100.0,583.893,584.41,0.0,0.0,0.0,100.0,,,0.0,,,80.0,3.25,1.0,80.0,133.5505,0.0,359485.0913,134.0512,2.0,,,,,1.0
101.0,584.927,585.445,0.0,0.0,0.0,100.0,,,0.0,,,81.0,1.0,1.5,81.0,134.585,0.0,359486.3758,135.3358,2.0,,,,,1.0
102.0,586.212,586.729,0.0,0.0,0.0,100.0,,,1.0,,,82.0,2.75,3.0,82.0,135.8696,1.0,359488.4103,137.3703,2.0,,,,,1.0
103.0,588.247,588.764,0.0,0.0,0.0,100.0,,,1.0,,,83.0,2.75,2.25,83.0,137.9049,1.0,359490.0706,139.0306,2.0,,,,,1.0
104.0,589.899,590.416,0.0,0.0,0.0,100.0,,,0.0,,,84.0,2.5,1.75,84.0,139.5566,0.0,359491.472,140.432,2.0,,,,,1.0
105.0,591.3,591.818,0.0,0.0,0.0,100.0,,,1.0,,,85.0,3.0,1.5,85.0,140.9579,1.0,359492.7487,141.7087,2.0,,,,,1.0
106.0,592.585,593.102,0.0,0.0,0.0,100.0,,,1.0,,,86.0,3.0,1.5,86.0,142.2425,1.0,359494.0331,142.9931,2.0,,,,,1.0
107.0,593.87,594.387,0.0,0.0,0.0,100.0,,,0.0,,,87.0,2.0,2.75,87.0,143.5272,0.0,359495.9429,144.9029,2.0,,,,,1.0
108.0,595.771,596.289,0.0,0.0,0.0,100.0,,,1.0,,,88.0,3.25,1.0,88.0,145.429,1.0,359496.9695,145.9295,2.0,,,,,1.0
109.0,596.806,597.323,0.0,0.0,0.0,100.0,,,1.0,,,89.0,3.75,3.25,89.0,146.4635,1.0,359499.1292,148.0892,2.0,,,,,1.0
110.0,598.958,599.475,0.0,0.0,0.0,100.0,,,1.0,,,90.0,2.25,2.25,90.0,148.6157,1.0,359500.7814,149.7414,2.0,,,,,1.0
111.0,600.61,601.127,0.0,0.0,0.0,100.0,,,1.0,,,91.0,2.25,1.75,91.0,150.2672,1.0,359502.1827,151.1427,2.0,,,,,1.0
112.0,602.011,602.528,0.0,0.0,0.0,100.0,,,1.0,,,92.0,2.5,2.5,92.0,151.6686,1.0,359503.9593,152.9192,2.0,,,,,1.0
113.0,603.796,604.313,0.0,0.0,0.0,100.0,,,1.0,,,93.0,3.25,3.25,93.0,153.4537,1.0,359506.1192,155.0792,2.0,,,,,1.0
114.0,605.948,606.466,0.0,0.0,0.0,100.0,,,0.0,,,94.0,2.75,2.0,94.0,155.6059,0.0,359507.6464,156.6064,2.0,,,,,1.0
115.0,607.483,608.0,0.0,0.0,0.0,100.0,,,1.0,,,95.0,3.25,2.5,95.0,157.1407,1.0,359509.4314,158.3914,2.0,,,,,1.0
116.0,609.268,609.786,0.0,0.0,0.0,100.0,,,1.0,,,96.0,2.0,3.75,96.0,158.926,1.0,359511.8417,160.8017,2.0,,,,,1.0
117.0,611.671,612.188,0.0,0.0,0.0,100.0,,,0.0,,,97.0,3.5,2.5,97.0,161.3284,0.0,359513.6189,162.5789,2.0,,,,,1.0
118.0,613.456,613.973,0.0,0.0,0.0,100.0,,,0.0,,,98.0,2.75,2.75,98.0,163.1135,0.0,359515.5292,164.4892,2.0,,,,,1.0
119.0,615.358,615.875,0.0,0.0,0.0,100.0,,,1.0,,,99.0,1.5,1.75,99.0,165.0153,1.0,359516.9311,165.8911,2.0,,,,,1.0
120.0,616.759,617.277,0.0,0.0,0.0,100.0,,,1.0,,,100.0,2.25,1.5,100.0,166.4168,0.0,359518.2074,167.1673,2.0,,,,,1.0
121.0,713.44,713.457,0.0,0.0,0.0,100.0,,,1.0,,,1.0,0.8,0.8,1.0,0.0052564,0.0,256960.2729,0.806,3.0,,,,,2.0
122.0,714.258,714.274,0.0,0.0,0.0,100.0,,,1.0,,,2.0,0.8,0.8,2.0,0.81031,0.0,256961.0781,1.6112,3.0,,,,,2.0
123.0,715.075,715.091,0.0,0.0,0.0,100.0,,,1.0,,,3.0,0.8,0.8,3.0,1.616,0.0,256961.8838,2.4169,3.0,,,,,2.0
124.0,715.893,715.91,0.0,0.0,0.0,100.0,,,1.0,,,4.0,0.8,0.8,4.0,2.4216,1.0,256962.6893,3.2224,3.0,,,,,2.0
125.0,716.711,716.726,0.0,0.0,0.0,100.0,,,1.0,,,5.0,0.8,0.8,5.0,3.227,0.0,256963.4946,4.0277,3.0,,,,,2.0
126.0,717.527,717.544,0.0,0.0,0.0,100.0,,,1.0,,,6.0,0.8,0.8,6.0,4.0316,1.0,256964.2993,4.8324,3.0,,,,,2.0
127.0,718.345,718.361,0.0,0.0,0.0,100.0,,,1.0,,,7.0,0.8,0.8,7.0,4.8368,1.0,256965.1046,5.6377,3.0,,,,,2.0
128.0,719.162,719.179,0.0,0.0,0.0,100.0,,,1.0,,,8.0,0.8,0.8,8.0,5.6417,1.0,256965.9093,6.4424,3.0,,,,,2.0
129.0,719.979,719.996,0.0,0.0,0.0,100.0,,,1.0,,,9.0,0.8,0.8,9.0,6.4467,0.0,256966.7144,7.2475,3.0,,,,,2.0
130.0,720.797,720.814,0.0,0.0,0.0,100.0,,,1.0,,,10.0,0.8,0.8,10.0,7.2526,1.0,256967.5204,8.0535,3.0,,,,,2.0
131.0,721.615,721.631,0.0,0.0,0.0,100.0,,,1.0,,,11.0,0.8,0.8,11.0,8.0574,0.0,256968.325,8.8581,3.0,,,,,2.0
132.0,722.432,722.449,0.0,0.0,0.0,100.0,,,1.0,,,12.0,0.8,0.8,12.0,8.8621,1.0,256969.1298,9.6629,3.0,,,,,2.0
133.0,723.249,723.266,0.0,0.0,0.0,100.0,,,1.0,,,13.0,0.8,0.8,13.0,9.6684,0.0,256969.9361,10.4692,3.0,,,,,2.0
134.0,724.067,724.084,0.0,0.0,0.0,100.0,,,1.0,,,14.0,0.8,0.8,14.0,10.4741,0.0,256970.7416,11.2747,3.0,,,,,2.0
135.0,724.884,724.902,0.0,0.0,0.0,100.0,,,1.0,,,15.0,0.8,0.8,15.0,11.2788,0.0,256971.5466,12.0796,3.0,,,,,2.0
136.0,725.702,725.718,0.0,0.0,0.0,100.0,,,1.0,,,16.0,0.8,0.8,16.0,12.0841,0.0,256972.3524,12.8855,3.0,,,,,2.0
137.0,726.519,726.536,0.0,0.0,0.0,100.0,,,1.0,,,17.0,0.8,0.8,17.0,12.8897,0.0,256973.1574,13.6905,3.0,,,,,2.0
138.0,727.337,727.354,0.0,0.0,0.0,100.0,,,1.0,,,18.0,0.8,0.8,18.0,13.695,0.0,256973.9627,14.4958,3.0,,,,,2.0
139.0,728.155,728.171,0.0,0.0,0.0,100.0,,,1.0,,,19.0,0.8,0.8,19.0,14.5003,1.0,256974.768,15.3011,3.0,,,,,2.0
140.0,728.972,728.989,0.0,0.0,0.0,100.0,,,1.0,,,20.0,0.8,0.8,20.0,15.3056,0.0,256975.5734,16.1065,3.0,,,,,2.0
141.0,729.789,729.806,0.0,0.0,0.0,100.0,,,1.0,,,21.0,0.8,0.8,21.0,16.1113,0.0,256976.3792,16.9123,3.0,,,,,2.0
142.0,730.607,730.623,0.0,0.0,0.0,100.0,,,1.0,,,22.0,0.8,0.8,22.0,16.9168,1.0,256977.1843,17.7174,3.0,,,,,2.0
143.0,731.424,731.441,0.0,0.0,0.0,100.0,,,1.0,,,23.0,0.8,0.8,23.0,17.7213,0.0,256977.9889,18.522,3.0,,,,,2.0
144.0,732.242,732.258,0.0,0.0,0.0,100.0,,,1.0,,,24.0,0.8,0.8,24.0,18.5259,1.0,256978.7937,19.3268,3.0,,,,,2.0
145.0,733.059,733.076,0.0,0.0,0.0,100.0,,,1.0,,,25.0,0.8,0.8,25.0,19.3315,0.0,256979.5993,20.1324,3.0,,,,,2.0
146.0,733.877,733.893,0.0,0.0,0.0,100.0,,,1.0,,,26.0,0.8,0.8,26.0,20.1368,1.0,256980.4044,20.9375,3.0,,,,,2.0
147.0,734.694,734.711,0.0,0.0,0.0,100.0,,,1.0,,,27.0,0.8,0.8,27.0,20.9414,1.0,256981.2092,21.7423,3.0,,,,,2.0
148.0,735.511,735.529,0.0,0.0,0.0,100.0,,,1.0,,,28.0,0.8,0.8,28.0,21.7487,1.0,256982.0164,22.5495,3.0,,,,,2.0
149.0,736.329,736.346,0.0,0.0,0.0,100.0,,,1.0,,,29.0,0.8,0.8,29.0,22.5541,0.0,256982.8219,23.355,3.0,,,,,2.0
150.0,737.147,737.163,0.0,0.0,0.0,100.0,,,1.0,,,30.0,0.8,0.8,30.0,23.3595,0.0,256983.6272,24.1603,3.0,,,,,2.0
151.0,737.964,737.981,0.0,0.0,0.0,100.0,,,1.0,,,31.0,0.8,0.8,31.0,24.1645,1.0,256984.4323,24.9654,3.0,,,,,2.0
152.0,738.782,738.798,0.0,0.0,0.0,100.0,,,1.0,,,32.0,0.8,0.8,17.0,12.8897,0.0,256973.1574,13.6905,3.0,,,,,2.0
153.0,739.599,739.616,0.0,0.0,0.0,100.0,,,1.0,,,33.0,0.8,0.8,18.0,13.695,0.0,256973.9627,14.4958,3.0,,,,,2.0
154.0,740.417,740.433,0.0,0.0,0.0,100.0,,,1.0,,,34.0,0.8,0.8,19.0,14.5003,1.0,256974.768,15.3011,3.0,,,,,2.0
155.0,741.234,741.251,0.0,0.0,0.0,100.0,,,1.0,,,35.0,0.8,0.8,20.0,15.3056,0.0,256975.5734,16.1065,3.0,,,,,2.0
156.0,742.051,742.068,0.0,0.0,0.0,100.0,,,1.0,,,36.0,0.8,0.8,21.0,16.1113,0.0,256976.3792,16.9123,3.0,,,,,2.0
157.0,742.869,742.886,0.0,0.0,0.0,100.0,,,1.0,,,37.0,0.8,0.8,22.0,16.9168,1.0,256977.1843,17.7174,3.0,,,,,2.0
158.0,743.687,743.703,0.0,0.0,0.0,100.0,,,1.0,,,38.0,0.8,0.8,23.0,17.7213,0.0,256977.9889,18.522,3.0,,,,,2.0
159.0,744.504,744.521,0.0,0.0,0.0,100.0,,,1.0,,,39.0,0.8,0.8,24.0,18.5259,1.0,256978.7937,19.3268,3.0,,,,,2.0
160.0,745.322,745.338,0.0,0.0,0.0,100.0,,,1.0,,,40.0,0.8,0.8,25.0,19.3315,0.0,256979.5993,20.1324,3.0,,,,,2.0
161.0,746.139,746.156,0.0,0.0,0.0,100.0,,,1.0,,,41.0,0.8,0.8,26.0,20.1368,1.0,256980.4044,20.9375,3.0,,,,,2.0
162.0,746.956,746.973,0.0,0.0,0.0,100.0,,,1.0,,,42.0,0.8,0.8,27.0,20.9414,1.0,256981.2092,21.7423,3.0,,,,,2.0
163.0,747.774,747.791,0.0,0.0,0.0,100.0,,,1.0,,,43.0,0.8,0.8,28.0,21.7487,1.0,256982.0164,22.5495,3.0,,,,,2.0
164.0,748.591,748.608,0.0,0.0,0.0,100.0,,,1.0,,,44.0,0.8,0.8,29.0,22.5541,0.0,256982.8219,23.355,3.0,,,,,2.0
168.0,1279.92,1279.939,0.0,0.0,0.0,100.0,,,1.0,,,1.0,0.8,0.8,1.0,0.0078247,0.0,257100.0598,0.80889,4.0,,,,,2.0
169.0,1280.741,1280.753,0.0,0.0,0.0,100.0,,,1.0,,,2.0,0.8,0.8,2.0,0.81337,0.0,257100.8651,1.6142,4.0,,,,,2.0
170.0,1281.554,1281.57,0.0,0.0,0.0,100.0,,,1.0,,,3.0,0.8,0.8,3.0,1.6192,0.0,257101.671,2.4201,4.0,,,,,2.0
171.0,1282.371,1282.388,0.0,0.0,0.0,100.0,,,1.0,,,4.0,0.8,0.8,4.0,2.4244,1.0,257102.4759,3.225,4.0,,,,,2.0
172.0,1283.19,1283.205,0.0,0.0,0.0,100.0,,,1.0,,,5.0,0.8,0.8,5.0,3.229,0.0,257103.2807,4.0298,4.0,,,,,2.0
173.0,1284.005,1284.022,0.0,0.0,0.0,100.0,,,1.0,,,6.0,0.8,0.8,6.0,4.0345,1.0,257104.0862,4.8354,4.0,,,,,2.0
174.0,1284.823,1284.84,0.0,0.0,0.0,100.0,,,1.0,,,7.0,0.8,0.8,7.0,4.84,1.0,257104.8918,5.6409,4.0,,,,,2.0
175.0,1285.641,1285.657,0.0,0.0,0.0,100.0,,,1.0,,,8.0,0.8,0.8,8.0,5.6452,1.0,257105.697,6.4461,4.0,,,,,2.0
176.0,1286.458,1286.475,0.0,0.0,0.0,100.0,,,1.0,,,9.0,0.8,0.8,9.0,6.4505,0.0,257106.5022,7.2513,4.0,,,,,2.0
177.0,1287.275,1287.292,0.0,0.0,0.0,100.0,,,1.0,,,10.0,0.8,0.8,10.0,7.2564,1.0,257107.3079,8.057,4.0,,,,,2.0
178.0,1288.093,1288.11,0.0,0.0,0.0,100.0,,,1.0,,,11.0,0.8,0.8,11.0,8.0609,0.0,257108.1127,8.8618,4.0,,,,,2.0
179.0,1288.911,1288.927,0.0,0.0,0.0,100.0,,,1.0,,,12.0,0.8,0.8,12.0,8.8661,1.0,257108.9178,9.6669,4.0,,,,,2.0
180.0,1289.728,1289.745,0.0,0.0,0.0,100.0,,,1.0,,,13.0,0.8,0.8,13.0,9.6714,0.0,257109.7232,10.4723,4.0,,,,,2.0
181.0,1290.545,1290.562,0.0,0.0,0.0,100.0,,,1.0,,,14.0,0.8,0.8,14.0,10.4764,0.0,257110.5281,11.2772,4.0,,,,,2.0
182.0,1291.363,1291.38,0.0,0.0,0.0,100.0,,,1.0,,,15.0,0.8,0.8,15.0,11.2824,0.0,257111.3339,12.083,4.0,,,,,2.0
183.0,1292.18,1292.197,0.0,0.0,0.0,100.0,,,1.0,,,16.0,0.8,0.8,16.0,12.0871,0.0,257112.1389,12.888,4.0,,,,,2.0
184.0,1292.998,1293.015,0.0,0.0,0.0,100.0,,,1.0,,,17.0,0.8,0.8,17.0,12.8923,0.0,257112.944,13.6931,4.0,,,,,2.0
185.0,1293.815,1293.832,0.0,0.0,0.0,100.0,,,1.0,,,18.0,0.8,0.8,18.0,13.6981,0.0,257113.7497,14.4988,4.0,,,,,2.0
186.0,1294.633,1294.65,0.0,0.0,0.0,100.0,,,1.0,,,19.0,0.8,0.8,19.0,14.5028,1.0,257114.5545,15.3037,4.0,,,,,2.0
187.0,1295.45,1295.467,0.0,0.0,0.0,100.0,,,1.0,,,20.0,0.8,0.8,20.0,15.3081,0.0,257115.3598,16.1089,4.0,,,,,2.0
188.0,1296.268,1296.285,0.0,0.0,0.0,100.0,,,1.0,,,21.0,0.8,0.8,21.0,16.1139,0.0,257116.1656,16.9147,4.0,,,,,2.0
189.0,1297.085,1297.102,0.0,0.0,0.0,100.0,,,1.0,,,22.0,0.8,0.8,22.0,16.9192,1.0,257116.9708,17.7199,4.0,,,,,2.0
190.0,1297.903,1297.92,0.0,0.0,0.0,100.0,,,1.0,,,23.0,0.8,0.8,23.0,17.7239,0.0,257117.7755,18.5247,4.0,,,,,2.0
191.0,1298.72,1298.737,0.0,0.0,0.0,100.0,,,1.0,,,24.0,0.8,0.8,24.0,18.5308,1.0,257118.5825,19.3316,4.0,,,,,2.0
192.0,1299.538,1299.554,0.0,0.0,0.0,100.0,,,1.0,,,25.0,0.8,0.8,25.0,19.3366,0.0,257119.3883,20.1374,4.0,,,,,2.0
193.0,1300.355,1300.372,0.0,0.0,0.0,100.0,,,1.0,,,26.0,0.8,0.8,26.0,20.1423,1.0,257120.194,20.9431,4.0,,,,,2.0
194.0,1301.173,1301.19,0.0,0.0,0.0,100.0,,,1.0,,,27.0,0.8,0.8,27.0,20.949,1.0,257121.001,21.7501,4.0,,,,,2.0
195.0,1301.99,1302.007,0.0,0.0,0.0,100.0,,,1.0,,,28.0,0.8,0.8,28.0,21.7543,1.0,257121.806,22.5551,4.0,,,,,2.0
196.0,1302.808,1302.824,0.0,0.0,0.0,100.0,,,1.0,,,29.0,0.8,0.8,29.0,22.5607,0.0,257122.6122,23.3613,4.0,,,,,2.0
197.0,1303.625,1303.642,0.0,0.0,0.0,100.0,,,1.0,,,30.0,0.8,0.8,30.0,23.3654,0.0,257123.417,24.1662,4.0,,,,,2.0
198.0,1304.443,1304.46,0.0,0.0,0.0,100.0,,,1.0,,,31.0,0.8,0.8,31.0,24.1717,1.0,257124.2234,24.9725,4.0,,,,,2.0
199.0,1305.26,1305.277,0.0,0.0,0.0,100.0,,,1.0,,,32.0,0.8,0.8,32.0,24.9769,0.0,257125.0286,25.7777,4.0,,,,,2.0
200.0,1306.078,1306.094,0.0,0.0,0.0,100.0,,,1.0,,,33.0,0.8,0.8,33.0,25.7819,0.0,257125.8335,26.5826,4.0,,,,,2.0
201.0,1306.895,1306.912,0.0,0.0,0.0,100.0,,,1.0,,,34.0,0.8,0.8,34.0,26.5868,0.0,257126.6385,27.3876,4.0,,,,,2.0
202.0,1307.712,1307.73,0.0,0.0,0.0,100.0,,,1.0,,,35.0,0.8,0.8,35.0,27.3922,0.0,257127.4439,28.193,4.0,,,,,2.0
203.0,1308.53,1308.547,0.0,0.0,0.0,100.0,,,1.0,,,36.0,0.8,0.8,36.0,28.1973,0.0,257128.2488,28.9979,4.0,,,,,2.0
204.0,1309.348,1309.364,0.0,0.0,0.0,100.0,,,1.0,,,37.0,0.8,0.8,37.0,29.0017,1.0,257129.0534,29.8025,4.0,,,,,2.0
205.0,1310.165,1310.182,0.0,0.0,0.0,100.0,,,1.0,,,38.0,0.8,0.8,38.0,29.8078,0.0,257129.8596,30.6087,4.0,,,,,2.0
206.0,1310.982,1310.999,0.0,0.0,0.0,100.0,,,1.0,,,39.0,0.8,0.8,39.0,30.6127,1.0,257130.6643,31.4135,4.0,,,,,2.0
207.0,1311.8,1311.817,0.0,0.0,0.0,100.0,,,1.0,,,40.0,0.8,0.8,40.0,31.4179,0.0,257131.4694,32.2186,4.0,,,,,2.0
208.0,1312.617,1312.634,0.0,0.0,0.0,100.0,,,1.0,,,41.0,0.8,0.8,41.0,32.2224,0.0,257132.2741,33.0232,4.0,,,,,2.0
209.0,1313.435,1313.452,0.0,0.0,0.0,100.0,,,1.0,,,42.0,0.8,0.8,42.0,33.0278,1.0,257133.0797,33.8288,4.0,,,,,2.0
210.0,1314.252,1314.269,0.0,0.0,0.0,100.0,,,1.0,,,43.0,0.8,0.8,43.0,33.8331,1.0,257133.8848,34.634,4.0,,,,,2.0
211.0,1315.07,1315.087,0.0,0.0,0.0,100.0,,,1.0,,,44.0,0.8,0.8,44.0,34.6382,0.0,257134.6929,35.442,4.0,,,,,2.0
212.0,1315.887,1315.904,0.0,0.0,0.0,100.0,,,1.0,,,45.0,0.8,0.8,45.0,35.4451,0.0,257135.4968,36.2459,4.0,,,,,2.0
213.0,1316.705,1316.722,0.0,0.0,0.0,100.0,,,1.0,,,46.0,0.8,0.8,46.0,36.2508,1.0,257136.3025,37.0516,4.0,,,,,2.0
214.0,1317.523,1317.539,0.0,0.0,0.0,100.0,,,1.0,,,47.0,0.8,0.8,47.0,37.0559,1.0,257137.1077,37.8568,4.0,,,,,2.0
215.0,1318.34,1318.357,0.0,0.0,0.0,100.0,,,1.0,,,48.0,0.8,0.8,48.0,37.861,0.0,257137.9127,38.6618,4.0,,,,,2.0
216.0,1319.157,1319.174,0.0,0.0,0.0,100.0,,,1.0,,,49.0,0.8,0.8,49.0,38.6662,0.0,257138.7184,39.4675,4.0,,,,,2.0
217.0,1319.975,1319.992,0.0,0.0,0.0,100.0,,,1.0,,,50.0,0.8,0.8,50.0,39.4714,0.0,257139.5231,40.2722,4.0,,,,,2.0
218.0,1320.792,1320.81,0.0,0.0,0.0,100.0,,,1.0,,,51.0,0.8,0.8,51.0,40.2766,1.0,257140.3281,41.0772,4.0,,,,,2.0
219.0,1321.61,1321.627,0.0,0.0,0.0,100.0,,,1.0,,,52.0,0.8,0.8,52.0,41.0817,0.0,257141.1334,41.8825,4.0,,,,,2.0
220.0,1322.427,1322.444,0.0,0.0,0.0,100.0,,,1.0,,,53.0,0.8,0.8,53.0,41.8877,0.0,257141.9396,42.6887,4.0,,,,,2.0
221.0,1323.245,1323.262,0.0,0.0,0.0,100.0,,,1.0,,,54.0,0.8,0.8,54.0,42.6928,0.0,257142.7445,43.4937,4.0,,,,,2.0
222.0,1324.062,1324.079,0.0,0.0,0.0,100.0,,,1.0,,,55.0,0.8,0.8,55.0,43.498,0.0,257143.5497,44.2988,4.0,,,,,2.0
223.0,1324.88,1324.897,0.0,0.0,0.0,100.0,,,1.0,,,56.0,0.8,0.8,56.0,44.3033,0.0,257144.355,45.1041,4.0,,,,,2.0
224.0,1325.697,1325.714,0.0,0.0,0.0,100.0,,,1.0,,,57.0,0.8,0.8,57.0,45.1094,0.0,257145.1611,45.9102,4.0,,,,,2.0
225.0,1326.515,1326.532,0.0,0.0,0.0,100.0,,,1.0,,,58.0,0.8,0.8,58.0,45.9148,1.0,257145.9665,46.7156,4.0,,,,,2.0
226.0,1327.332,1327.349,0.0,0.0,0.0,100.0,,,1.0,,,59.0,0.8,0.8,59.0,46.72,0.0,257146.7717,47.5208,4.0,,,,,2.0
227.0,1328.149,1328.167,0.0,0.0,0.0,100.0,,,1.0,,,60.0,0.8,0.8,60.0,47.5251,1.0,257147.5774,48.3266,4.0,,,,,2.0
228.0,1328.967,1328.984,0.0,0.0,0.0,100.0,,,1.0,,,61.0,0.8,0.8,61.0,48.3306,0.0,257148.3821,49.1312,4.0,,,,,2.0
229.0,1329.785,1329.802,0.0,0.0,0.0,100.0,,,1.0,,,62.0,0.8,0.8,62.0,49.1351,1.0,257149.1868,49.9359,4.0,,,,,2.0
230.0,1330.602,1330.619,0.0,0.0,0.0,100.0,,,1.0,,,63.0,0.8,0.8,63.0,49.9409,1.0,257149.9925,50.7416,4.0,,,,,2.0
231.0,1331.42,1331.436,0.0,0.0,0.0,100.0,,,1.0,,,64.0,0.8,0.8,64.0,50.7459,0.0,257150.7977,51.5468,4.0,,,,,2.0
232.0,1332.237,1332.254,0.0,0.0,0.0,100.0,,,1.0,,,65.0,0.8,0.8,65.0,51.5511,1.0,257151.6028,52.3519,4.0,,,,,2.0
233.0,1333.055,1333.072,0.0,0.0,0.0,100.0,,,1.0,,,66.0,0.8,0.8,66.0,52.3566,1.0,257152.4082,53.1573,4.0,,,,,2.0
234.0,1333.872,1333.889,0.0,0.0,0.0,100.0,,,1.0,,,67.0,0.8,0.8,67.0,53.1612,1.0,257153.2129,53.962,4.0,,,,,2.0
235.0,1334.689,1334.707,0.0,0.0,0.0,100.0,,,1.0,,,68.0,0.8,0.8,68.0,53.9679,0.0,257154.0196,54.7687,4.0,,,,,2.0
236.0,1335.507,1335.524,0.0,0.0,0.0,100.0,,,1.0,,,69.0,0.8,0.8,69.0,54.7734,0.0,257154.8251,55.5742,4.0,,,,,2.0
237.0,1336.324,1336.342,0.0,0.0,0.0,100.0,,,1.0,,,70.0,0.8,0.8,70.0,55.5786,1.0,257155.6303,56.3794,4.0,,,,,2.0
238.0,1337.142,1337.159,0.0,0.0,0.0,100.0,,,1.0,,,71.0,0.8,0.8,71.0,56.3839,1.0,257156.4359,57.1851,4.0,,,,,2.0
239.0,1337.959,1337.976,0.0,0.0,0.0,100.0,,,1.0,,,72.0,0.8,0.8,72.0,57.189,0.0,257157.2407,57.9898,4.0,,,,,2.0
240.0,1338.777,1338.794,0.0,0.0,0.0,100.0,,,1.0,,,73.0,0.8,0.8,73.0,57.9954,1.0,257158.047,58.7962,4.0,,,,,2.0
241.0,1339.595,1339.611,0.0,0.0,0.0,100.0,,,1.0,,,74.0,0.8,0.8,74.0,58.8005,1.0,257158.852,59.6011,4.0,,,,,2.0
242.0,1340.412,1340.429,0.0,0.0,0.0,100.0,,,1.0,,,75.0,0.8,0.8,75.0,59.6068,1.0,257159.6585,60.4076,4.0,,,,,2.0
243.0,1341.229,1341.246,0.0,0.0,0.0,100.0,,,1.0,,,76.0,0.8,0.8,76.0,60.412,1.0,257160.4636,61.2128,4.0,,,,,2.0
244.0,1342.047,1342.064,0.0,0.0,0.0,100.0,,,1.0,,,77.0,0.8,0.8,77.0,61.2172,1.0,257161.2689,62.0181,4.0,,,,,2.0
245.0,1342.865,1342.881,0.0,0.0,0.0,100.0,,,1.0,,,78.0,0.8,0.8,78.0,62.0221,1.0,257162.0771,62.8262,4.0,,,,,2.0
246.0,1343.682,1343.699,0.0,0.0,0.0,100.0,,,1.0,,,79.0,0.8,0.8,79.0,62.8293,1.0,257162.8811,63.6302,4.0,,,,,2.0
247.0,1344.5,1344.516,0.0,0.0,0.0,100.0,,,1.0,,,80.0,0.8,0.8,80.0,63.6346,0.0,257163.6861,64.4352,4.0,,,,,2.0
248.0,1345.317,1345.334,0.0,0.0,0.0,100.0,,,1.0,,,81.0,0.8,0.8,81.0,64.4393,0.0,257164.4908,65.2399,4.0,,,,,2.0
249.0,1346.134,1346.151,0.0,0.0,0.0,100.0,,,1.0,,,82.0,0.8,0.8,82.0,65.244,1.0,257165.2958,66.0449,4.0,,,,,2.0
250.0,1346.952,1346.969,0.0,0.0,0.0,100.0,,,1.0,,,83.0,0.8,0.8,83.0,66.0498,1.0,257166.1016,66.8507,4.0,,,,,2.0
251.0,1347.769,1347.786,0.0,0.0,0.0,100.0,,,1.0,,,84.0,0.8,0.8,84.0,66.8547,0.0,257166.9064,67.6555,4.0,,,,,2.0
252.0,1348.587,1348.604,0.0,0.0,0.0,100.0,,,1.0,,,85.0,0.8,0.8,85.0,67.6599,1.0,257167.7116,68.4607,4.0,,,,,2.0
253.0,1349.405,1349.421,0.0,0.0,0.0,100.0,,,1.0,,,86.0,0.8,0.8,86.0,68.4648,1.0,257168.5165,69.2656,4.0,,,,,2.0
254.0,1350.222,1350.239,0.0,0.0,0.0,100.0,,,1.0,,,87.0,0.8,0.8,87.0,69.2707,0.0,257169.3223,70.0715,4.0,,,,,2.0
255.0,1351.04,1351.056,0.0,0.0,0.0,100.0,,,1.0,,,88.0,0.8,0.8,88.0,70.0754,1.0,257170.1271,70.8762,4.0,,,,,2.0
256.0,1351.857,1351.874,0.0,0.0,0.0,100.0,,,1.0,,,89.0,0.8,0.8,89.0,70.8808,1.0,257170.9323,71.6814,4.0,,,,,2.0
257.0,1352.674,1352.691,0.0,0.0,0.0,100.0,,,1.0,,,90.0,0.8,0.8,90.0,71.686,1.0,257171.7377,72.4869,4.0,,,,,2.0
258.0,1353.492,1353.509,0.0,0.0,0.0,100.0,,,1.0,,,91.0,0.8,0.8,91.0,72.4923,1.0,257172.5441,73.2932,4.0,,,,,2.0
259.0,1354.309,1354.326,0.0,0.0,0.0,100.0,,,1.0,,,92.0,0.8,0.8,92.0,73.2976,1.0,257173.3491,74.0982,4.0,,,,,2.0
260.0,1355.127,1355.144,0.0,0.0,0.0,100.0,,,1.0,,,93.0,0.8,0.8,93.0,74.1023,1.0,257174.1542,74.9033,4.0,,,,,2.0
261.0,1355.944,1355.961,0.0,0.0,0.0,100.0,,,1.0,,,94.0,0.8,0.8,94.0,74.9078,0.0,257174.9594,75.7086,4.0,,,,,2.0
262.0,1356.761,1356.778,0.0,0.0,0.0,100.0,,,1.0,,,95.0,0.8,0.8,95.0,75.7131,1.0,257175.7646,76.5137,4.0,,,,,2.0
263.0,1357.579,1357.596,0.0,0.0,0.0,100.0,,,1.0,,,96.0,0.8,0.8,96.0,76.5178,1.0,257176.5695,77.3186,4.0,,,,,2.0
264.0,1358.396,1358.413,0.0,0.0,0.0,100.0,,,1.0,,,97.0,0.8,0.8,97.0,77.3232,0.0,257177.375,78.1241,4.0,,,,,2.0
265.0,1359.214,1359.231,0.0,0.0,0.0,100.0,,,1.0,,,98.0,0.8,0.8,98.0,78.1291,0.0,257178.1808,78.9299,4.0,,,,,2.0
266.0,1360.032,1360.049,0.0,0.0,0.0,100.0,,,1.0,,,99.0,0.8,0.8,99.0,78.9339,1.0,257178.9856,79.7347,4.0,,,,,2.0
