Trial number,Fixation Onset NEV,Image Onset NEV,Image Offset NEV,nothing,Fixation Onset NEV,Onset Choice Period,Response time NEV,Shade value NEV,Reaction time NEV,Trial onset,Trial offset,nothing,TrialNum,Delay1,Delay2,TrialComplete,TimeImageOnset,ColorLev,TimeRec,TimeTrial,StartTrial,CrossStart,ResponseTime,BlockNumber,TrialTypeDesignation
1.0,1907.772,1913.314,1913.817,1.0,1907.772,1911.795,,0.0,,1907.772,1913.817,,1.0,3.25,1.25,1.0,1.5145,0.0,231308.8029,6.0902,0.00075238,4.0699,-1.0,3.0,3.0
2.0,1915.095,1920.634,1921.137,1.0,1915.095,1919.116,1919.128,0.0,0.012,1915.095,1921.137,0.012,2.0,2.25,3.5,2.0,1.5177,0.0,231316.1228,13.41,7.3527,11.3908,231295.3604,3.0,3.0
3.0,1924.672,1930.211,1930.712,1.0,1924.672,1928.692,,0.0,,1924.672,1930.712,,3.0,3.25,3.75,3.0,1.5178,0.0,231325.6986,22.9857,16.9266,20.967,-1.0,3.0,3.0
4.0,1934.498,1940.02,1940.522,1.0,1934.498,1938.502,,1.0,,1934.498,1940.522,,4.0,2.75,1.0,4.0,1.518,1.0,231335.5084,32.7955,26.7528,30.7766,-1.0,3.0,3.0
5.0,1941.556,1947.096,1947.6,1.0,1941.556,1945.576,,0.0,,1941.556,1947.6,,5.0,3.5,3.75,5.0,1.5174,0.0,231342.5856,39.8729,33.8137,37.8508,-1.0,3.0,3.0
6.0,1951.382,1956.904,1957.407,1.0,1951.382,1955.386,1955.81,1.0,0.424,1951.382,1957.407,0.424,6.0,3.0,3.25,6.0,1.5178,1.0,231352.3918,49.679,43.6371,47.6602,231259.4981,3.0,3.0
7.0,1960.674,1966.196,1966.698,1.0,1960.674,1964.678,,1.0,,1960.674,1966.698,,7.0,3.0,2.0,7.0,1.518,1.0,231361.6844,58.9715,52.9457,56.9526,-1.0,3.0,3.0
8.0,1968.733,1974.271,1974.774,1.0,1968.733,1972.753,,0.0,,1968.733,1974.774,,8.0,2.75,1.5,8.0,1.5178,0.0,231369.7592,67.0463,60.9883,65.0276,-1.0,3.0,3.0
9.0,1976.306,1981.845,1982.347,1.0,1976.306,1980.327,1980.658,1.0,0.331,1976.306,1982.347,0.331,9.0,3.0,1.0,9.0,1.518,1.0,231377.3333,74.6205,68.5632,72.6018,231234.4772,3.0,3.0
10.0,1983.38,1988.902,1989.404,1.0,1983.38,1987.384,,1.0,,1983.38,1989.404,,10.0,1.75,1.0,10.0,1.5181,1.0,231384.3902,81.6773,75.6373,79.6587,-1.0,3.0,3.0
11.0,1990.437,1995.96,1996.462,1.0,1990.437,1994.441,1994.793,1.0,0.352,1990.437,1996.462,0.352,11.0,1.25,3.25,11.0,1.518,1.0,231391.4475,88.7347,82.6947,86.7158,231220.3682,3.0,3.0
12.0,1999.747,2005.286,2005.787,1.0,1999.747,2003.767,2004.194,0.0,0.427,1999.747,2005.787,0.427,12.0,3.0,1.75,12.0,1.5178,0.0,231400.7732,98.0604,92.0013,96.0419,231211.1282,3.0,3.0
13.0,2007.571,2013.11,2013.613,1.0,2007.571,2011.592,2012.976,0.0,1.384,2007.571,2013.613,1.384,13.0,3.75,1.0,13.0,1.5181,0.0,231408.598,105.8852,99.8273,103.8662,231204.2688,3.0,3.0
14.0,2014.645,2020.167,2020.67,1.0,2014.645,2018.649,2019.361,0.0,0.712,2014.645,2020.67,0.712,14.0,2.25,2.0,14.0,1.518,0.0,231415.6549,112.9421,106.9021,110.9232,231196.5221,3.0,3.0
15.0,2022.703,2028.242,2028.744,1.0,2022.703,2026.724,2027.377,1.0,0.653,2022.703,2028.744,0.653,15.0,3.25,3.25,15.0,1.5179,1.0,231423.7295,121.0166,114.9592,118.998,231188.4065,3.0,3.0
16.0,2032.029,2037.568,2038.071,1.0,2032.029,2036.05,2036.401,0.0,0.351,2032.029,2038.071,0.351,16.0,1.5,2.25,16.0,1.5178,0.0,231433.0557,130.3429,124.2838,128.3242,231178.7788,3.0,3.0
17.0,2040.354,2045.876,2046.379,1.0,2040.354,2044.358,2045.097,1.0,0.739,2040.354,2046.379,0.739,17.0,2.25,2.75,17.0,1.5179,1.0,231441.364,138.6512,132.6098,136.6323,231170.8402,3.0,3.0
18.0,2049.163,2054.702,2055.204,1.0,2049.163,2053.184,2053.714,0.0,0.53,2049.163,2055.204,0.53,18.0,3.0,3.25,18.0,1.518,0.0,231450.1895,147.4767,141.4181,145.4578,231161.8242,3.0,3.0
19.0,2058.472,2063.994,2064.496,1.0,2058.472,2062.476,2062.929,1.0,0.453,2058.472,2064.496,0.453,19.0,1.75,3.0,19.0,1.518,1.0,231459.4819,156.769,150.7434,154.7504,231152.4219,3.0,3.0
20.0,2067.531,2073.07,2073.573,1.0,2067.531,2071.552,2072.065,0.0,0.513,2067.531,2073.573,0.513,20.0,2.75,1.25,20.0,1.5178,0.0,231468.5579,165.845,159.786,163.8263,231143.438,3.0,3.0
21.0,2074.855,2080.377,2080.88,1.0,2074.855,2078.859,2079.337,1.0,0.478,2074.855,2080.88,0.478,21.0,1.25,2.25,21.0,1.518,1.0,231475.8652,173.1523,167.1118,171.1334,231136.0779,3.0,3.0
22.0,2083.164,2088.703,2089.204,1.0,2083.164,2087.184,2087.881,0.0,0.697,2083.164,2089.204,0.697,22.0,3.75,2.0,22.0,1.5178,0.0,231484.19,181.4771,175.4191,179.4586,231127.9898,3.0,3.0
23.0,2091.238,2096.761,2097.262,1.0,2091.238,2095.242,2096.017,1.0,0.775,2091.238,2097.262,0.775,23.0,2.75,1.5,23.0,1.5179,1.0,231492.248,189.5351,183.4942,187.5165,231119.993,3.0,3.0
24.0,2098.796,2104.318,2104.821,1.0,2098.796,2102.8,2103.465,0.0,0.665,2098.796,2104.821,0.665,24.0,3.25,1.75,24.0,1.5182,0.0,231499.8058,197.093,191.0522,195.074,231112.3253,3.0,3.0
25.0,2106.604,2112.143,2112.645,1.0,2106.604,2110.625,2111.313,1.0,0.688,2106.604,2112.645,0.688,25.0,2.5,3.0,25.0,1.5179,1.0,231507.6302,204.9173,198.8598,202.8987,231104.5398,3.0,3.0
26.0,2115.68,2121.219,2121.72,1.0,2115.68,2119.7,2120.249,0.0,0.549,2115.68,2121.72,0.549,26.0,3.5,3.75,26.0,1.5179,0.0,231516.7059,213.993,207.9343,211.9744,231095.3269,3.0,3.0
27.0,2125.489,2131.012,2131.514,1.0,2125.489,2129.493,2130.12,1.0,0.627,2125.489,2131.514,0.627,27.0,2.5,1.25,27.0,1.518,1.0,231526.4991,223.7863,217.76,221.7673,231085.5791,3.0,3.0
28.0,2132.797,2138.336,2138.838,1.0,2132.797,2136.818,2137.577,0.0,0.759,2132.797,2138.838,0.759,28.0,1.25,1.75,28.0,1.5179,0.0,231533.823,231.1102,225.0528,229.0915,231078.4185,3.0,3.0
29.0,2140.621,2146.144,2146.646,1.0,2140.621,2144.625,2145.521,1.0,0.896,2140.621,2146.646,0.896,29.0,3.5,1.75,29.0,1.5181,1.0,231541.6308,238.9179,232.8772,236.8992,231070.7311,3.0,3.0
30.0,2148.429,2153.951,2154.454,1.0,2148.429,2152.433,2152.849,1.0,0.416,2148.429,2154.454,0.416,30.0,3.25,1.5,30.0,1.5181,0.0,231549.4387,246.7259,240.6847,244.707,231062.4438,3.0,3.0
31.0,2206.437,2211.976,2212.479,1.0,2206.437,2210.458,2210.986,0.0,0.528,2206.437,2212.479,0.528,1.0,3.25,1.25,1.0,1.5178,0.0,231607.4634,6.0495,0.00014332,4.0308,231601.9403,4.0,3.0
32.0,2213.761,2219.284,2219.785,1.0,2213.761,2217.765,2218.297,1.0,0.532,2213.761,2219.785,0.532,2.0,2.25,3.5,2.0,1.5179,1.0,231614.7703,13.3564,7.3162,11.338,231594.6291,4.0,3.0
34.0,2282.797,2288.336,2288.84,1.0,2282.797,2286.818,2287.523,0.0,0.705,2282.797,2288.84,0.705,1.0,3.25,1.25,1.0,1.5179,0.0,231683.8234,6.0583,0.00072894,4.0392,231678.4676,5.0,3.0
35.0,2290.121,2295.644,2296.146,1.0,2290.121,2294.125,2294.57,1.0,0.445,2290.121,2296.146,0.445,2.0,2.25,3.5,2.0,1.518,1.0,231691.1303,13.3651,7.325,11.3462,231670.8843,5.0,3.0
36.0,2299.681,2305.203,2305.705,1.0,2299.681,2303.685,2304.258,0.0,0.573,2299.681,2305.705,0.573,3.0,3.25,3.75,3.0,1.5179,0.0,231700.6898,22.9246,16.8821,20.9059,231661.4556,5.0,3.0
37.0,2309.491,2315.03,2315.532,1.0,2309.491,2313.512,2314.138,1.0,0.626,2309.491,2315.532,0.626,4.0,2.75,1.0,4.0,1.5178,1.0,231710.5161,32.7509,26.6917,30.7324,231651.6992,5.0,3.0
38.0,2316.565,2322.105,2322.61,1.0,2316.565,2320.586,2321.228,0.0,0.642,2316.565,2322.61,0.642,5.0,3.5,3.75,5.0,1.5173,0.0,231717.5934,39.8284,33.7681,37.8066,231644.6363,5.0,3.0
39.0,2326.374,2331.896,2332.399,1.0,2326.374,2330.378,2331.234,1.0,0.856,2326.374,2332.399,0.856,6.0,3.0,3.25,6.0,1.518,1.0,231727.383,49.6179,43.5922,47.599,231635.0281,5.0,3.0
40.0,2335.667,2341.189,2341.691,1.0,2335.667,2339.671,2340.106,0.0,0.435,2335.667,2341.691,0.435,7.0,3.0,2.0,7.0,1.518,0.0,231736.6758,58.9106,52.8846,56.8916,231625.3151,5.0,3.0
41.0,2343.725,2349.247,2349.749,1.0,2343.725,2347.729,2348.098,1.0,0.369,2343.725,2349.749,0.369,8.0,2.75,1.5,8.0,1.518,1.0,231744.7335,66.9683,60.9274,64.9497,231617.2062,5.0,3.0
42.0,2351.283,2356.822,2357.324,1.0,2351.283,2355.303,2355.738,0.0,0.435,2351.283,2357.324,0.435,9.0,3.0,1.0,9.0,1.5178,0.0,231752.308,74.5428,68.4857,72.5241,231609.7137,5.0,3.0
43.0,2358.356,2363.895,2364.397,1.0,2358.356,2362.377,2362.746,1.0,0.369,2358.356,2364.397,0.369,10.0,1.75,1.0,10.0,1.5178,1.0,231759.3814,81.6163,75.5595,79.5979,231602.5729,5.0,3.0
44.0,2365.43,2370.952,2371.455,1.0,2365.43,2369.434,2370.09,0.0,0.656,2365.43,2371.455,0.656,11.0,1.25,3.25,11.0,1.518,0.0,231766.4387,88.6735,82.6336,86.6548,231595.7869,5.0,3.0
45.0,2374.74,2380.262,2380.764,1.0,2374.74,2378.743,2379.578,1.0,0.835,2374.74,2380.764,0.835,12.0,3.0,1.75,12.0,1.518,1.0,231775.748,97.9829,91.9406,95.9641,231586.6586,5.0,3.0
46.0,2382.547,2388.069,2388.572,1.0,2382.547,2386.551,2387.114,0.0,0.563,2382.547,2388.572,0.563,13.0,3.75,1.0,13.0,1.518,0.0,231783.5558,105.7907,99.7501,103.7719,231578.5776,5.0,3.0
47.0,2389.604,2395.127,2395.629,1.0,2389.604,2393.608,2393.97,1.0,0.362,2389.604,2395.629,0.362,14.0,2.25,2.0,14.0,1.518,1.0,231790.6129,112.8478,106.8074,110.8288,231571.3182,5.0,3.0
48.0,2397.662,2403.185,2403.687,1.0,2397.662,2401.666,2402.242,0.0,0.576,2397.662,2403.687,0.576,15.0,3.25,3.25,15.0,1.518,0.0,231798.671,120.9058,114.8646,118.8869,231563.4758,5.0,3.0
49.0,2406.955,2412.477,2412.98,1.0,2406.955,2410.959,2411.306,1.0,0.347,2406.955,2412.98,0.347,16.0,1.5,2.25,16.0,1.5179,1.0,231807.9636,130.1984,124.1727,128.1796,231553.9391,5.0,3.0
50.0,2415.264,2420.786,2421.288,1.0,2415.264,2419.268,2419.882,0.0,0.614,2415.264,2421.288,0.614,17.0,2.25,2.75,17.0,1.5179,0.0,231816.2719,138.5067,132.4654,136.488,231545.913,5.0,3.0
51.0,2424.072,2429.594,2430.097,1.0,2424.072,2428.076,2429.386,1.0,1.31,2424.072,2430.097,1.31,18.0,3.0,3.25,18.0,1.5178,1.0,231825.0807,147.3155,141.2735,145.2969,231537.8008,5.0,3.0
52.0,2433.365,2438.904,2439.407,1.0,2433.365,2437.386,2437.834,0.0,0.448,2433.365,2439.407,0.448,19.0,1.75,3.0,19.0,1.5179,0.0,231834.39,156.6249,150.5821,154.6061,231527.63,5.0,3.0
53.0,2442.441,2447.963,2448.466,1.0,2442.441,2446.445,2447.098,1.0,0.653,2442.441,2448.466,0.653,20.0,2.75,1.25,20.0,1.518,1.0,231843.4491,165.6839,159.6417,163.665,231518.7756,5.0,3.0
54.0,2449.748,2455.27,2455.772,1.0,2449.748,2453.752,2454.362,1.0,0.61,2449.748,2455.772,0.61,21.0,1.25,2.25,21.0,1.518,1.0,231850.7564,172.9912,166.9507,170.9723,231511.4246,5.0,3.0
55.0,2458.057,2463.579,2464.081,1.0,2458.057,2462.06,2462.538,0.0,0.478,2458.057,2464.081,0.478,22.0,3.75,2.0,22.0,1.5181,0.0,231859.0647,181.2995,175.2581,179.2805,231502.9838,5.0,3.0
56.0,2466.114,2471.637,2472.139,1.0,2466.114,2470.118,2470.698,0.0,0.58,2466.114,2472.139,0.58,23.0,2.75,1.5,23.0,1.5181,0.0,231867.1227,189.3576,183.3163,187.3386,231495.0275,5.0,3.0
57.0,2473.672,2479.194,2479.696,1.0,2473.672,2477.676,2478.322,0.0,0.646,2473.672,2479.696,0.646,24.0,3.25,1.75,24.0,1.518,0.0,231874.6803,196.9152,190.8743,194.8962,231487.5358,5.0,3.0
58.0,2481.48,2487.002,2487.505,1.0,2481.48,2485.484,2486.21,1.0,0.726,2481.48,2487.505,0.726,25.0,2.5,3.0,25.0,1.5179,1.0,231882.488,204.7228,198.6818,202.7041,231479.8084,5.0,3.0
59.0,2490.539,2496.061,2496.564,1.0,2490.539,2494.543,2495.003,0.0,0.46,2490.539,2496.564,0.46,26.0,3.5,3.75,26.0,1.518,0.0,231891.5471,213.7819,207.7397,211.7631,231470.4849,5.0,3.0
60.0,2500.332,2505.871,2506.374,1.0,2500.332,2504.353,2504.939,1.0,0.586,2500.332,2506.374,0.586,27.0,2.5,1.25,27.0,1.5178,1.0,231901.3568,223.5916,217.5489,221.573,231460.8014,5.0,3.0
61.0,2507.656,2513.178,2513.68,1.0,2507.656,2511.66,2512.339,0.0,0.679,2507.656,2513.68,0.679,28.0,1.25,1.75,28.0,1.5181,0.0,231908.6642,230.899,224.8585,228.8802,231453.5846,5.0,3.0
62.0,2515.464,2520.986,2521.488,1.0,2515.464,2519.468,2520.091,1.0,0.623,2515.464,2521.488,0.623,29.0,3.5,1.75,29.0,1.5182,1.0,231916.472,238.7068,232.666,236.6879,231445.7205,5.0,3.0
63.0,2523.272,,,1.0,2523.272,0.0,,0.0,,2523.272,,,30.0,3.25,1.5,30.0,1.5181,0.0,231924.2797,246.5145,240.4738,244.4958,231437.9618,5.0,3.0
