Trial number,Fixation Onset NEV,Image Onset NEV,Stim on/off NEV,Stim onset NEV,Stim offset NEV,Response value NEV,Reaction onset NEV,Congruent Value NEV,Valence Value NEV,Reaction time NEV,Noname,TrialNum,Delay1,Delay2,TrialComplete,TimeImageOnset,ColorLev,TimeRec,TimeTrial,noname1,noname2,noname3,BlockNumber,TrialTypeDesignation
1.0,903.722,903.733,903.722,1.0,903.722,903.733,,1.0,,903.722,903.733,1.0,3.25,1.25,1.0,0.036564,0.0,512008.4248,0.84431,,,,1.0,
2.0,904.534,904.55,904.534,1.0,904.534,904.55,,1.0,,904.534,904.55,2.0,2.25,3.5,2.0,0.85407,0.0,512009.2368,1.6562,,,,1.0,
3.0,905.351,974.928,905.351,1.0,905.351,918.485,,1.0,,905.351,918.485,3.0,3.25,3.75,3.0,1.6706,0.0,512010.0538,2.4733,,,,1.0,
37.0,1065.264,1065.279,1065.264,1.0,1065.264,1065.279,,1.0,,1065.264,1065.279,1.0,3.25,1.25,1.0,0.024677,0.0,513261.3736,0.83071,,,,5.0,2.0
38.0,1066.08,1066.087,1066.08,1.0,1066.08,1066.087,,1.0,,1066.08,1066.087,2.0,2.25,3.5,2.0,0.83969,0.0,513262.1886,1.6458,,,,5.0,2.0
39.0,1066.888,1066.903,1066.888,1.0,1066.888,1066.903,,1.0,,1066.888,1066.903,3.0,3.25,3.75,3.0,1.6524,0.0,513262.9981,2.4553,,,,5.0,2.0
40.0,1067.708,1067.718,1067.708,1.0,1067.708,1067.718,,1.0,,1067.708,1067.718,4.0,2.75,1.0,4.0,2.4675,1.0,513263.8164,3.2736,,,,5.0,2.0
41.0,1068.523,1068.53,1068.523,1.0,1068.523,1068.53,,1.0,,1068.523,1068.53,5.0,3.5,3.75,5.0,3.2821,0.0,513264.6329,4.0903,,,,5.0,2.0
42.0,1069.331,1069.337,1069.331,1.0,1069.331,1069.337,,1.0,,1069.331,1069.337,6.0,3.0,3.25,6.0,4.0955,1.0,513265.4392,4.8963,,,,5.0,2.0
43.0,1070.138,1070.144,1070.138,1.0,1070.138,1070.144,,1.0,,1070.138,1070.144,7.0,3.0,2.0,7.0,4.9007,1.0,513266.2449,5.702,,,,5.0,2.0
44.0,1070.945,1070.95,1070.945,1.0,1070.945,1070.95,,1.0,,1070.945,1070.95,8.0,2.75,1.5,8.0,5.7066,1.0,513267.0507,6.5078,,,,5.0,2.0
45.0,1071.751,1071.756,1071.751,1.0,1071.751,1071.756,,1.0,,1071.751,1071.756,9.0,3.0,1.0,9.0,6.5121,0.0,513267.856,7.3131,,,,5.0,2.0
46.0,1072.556,1072.562,1072.556,1.0,1072.556,1072.562,,1.0,,1072.556,1072.562,10.0,1.75,1.0,10.0,7.3177,1.0,513268.6613,8.1185,,,,5.0,2.0
47.0,1073.363,1073.367,1073.363,1.0,1073.363,1073.367,,1.0,,1073.363,1073.367,11.0,1.25,3.25,11.0,8.1227,0.0,513269.4664,8.9236,,,,5.0,2.0
48.0,1074.168,1074.172,1074.168,1.0,1074.168,1074.172,,1.0,,1074.168,1074.172,12.0,3.0,1.75,12.0,8.9279,1.0,513270.2718,9.7289,,,,5.0,2.0
49.0,1074.973,1074.978,1074.973,1.0,1074.973,1074.978,,1.0,,1074.973,1074.978,13.0,3.75,1.0,13.0,9.7333,0.0,513271.0781,10.5353,,,,5.0,2.0
50.0,1075.778,1075.783,1075.778,1.0,1075.778,1075.783,,1.0,,1075.778,1075.783,14.0,2.25,2.0,14.0,10.5402,0.0,513271.884,11.3411,,,,5.0,2.0
51.0,1076.584,1076.588,1076.584,1.0,1076.584,1076.588,,1.0,,1076.584,1076.588,15.0,3.25,3.25,15.0,11.3459,0.0,513272.6898,12.147,,,,5.0,2.0
52.0,1077.389,1077.393,1077.389,1.0,1077.389,1077.393,,1.0,,1077.389,1077.393,16.0,1.5,2.25,16.0,12.1518,0.0,513273.4959,12.9531,,,,5.0,2.0
53.0,1078.194,1078.198,1078.194,1.0,1078.194,1078.198,,1.0,,1078.194,1078.198,17.0,2.25,2.75,17.0,12.9576,0.0,513274.3014,13.7586,,,,5.0,2.0
54.0,1078.999,1079.004,1078.999,1.0,1078.999,1079.004,,1.0,,1078.999,1079.004,18.0,3.0,3.25,18.0,13.7635,0.0,513275.1071,14.5643,,,,5.0,2.0
55.0,1079.804,1079.809,1079.804,1.0,1079.804,1079.809,,1.0,,1079.804,1079.809,19.0,1.75,3.0,19.0,14.569,1.0,513275.9128,15.3699,,,,5.0,2.0
56.0,1080.609,1080.615,1080.609,1.0,1080.609,1080.615,,1.0,,1080.609,1080.615,20.0,2.75,1.25,20.0,15.3743,0.0,513276.7181,16.1753,,,,5.0,2.0
57.0,1081.416,1081.42,1081.416,1.0,1081.416,1081.42,,1.0,,1081.416,1081.42,21.0,1.25,2.25,21.0,16.1818,0.0,513277.5256,16.9828,,,,5.0,2.0
58.0,1082.221,1082.226,1082.221,1.0,1082.221,1082.226,,1.0,,1082.221,1082.226,22.0,3.75,2.0,22.0,16.9878,1.0,513278.3317,17.7889,,,,5.0,2.0
59.0,1083.027,1083.031,1083.027,1.0,1083.027,1083.031,,1.0,,1083.027,1083.031,23.0,2.75,1.5,23.0,17.7929,0.0,513279.1366,18.5937,,,,5.0,2.0
60.0,1083.832,1083.837,1083.832,1.0,1083.832,1083.837,,1.0,,1083.832,1083.837,24.0,3.25,1.75,24.0,18.5977,1.0,513279.9458,19.4029,,,,5.0,2.0
61.0,1084.637,1084.643,1084.637,1.0,1084.637,1084.643,,1.0,,1084.637,1084.643,25.0,2.5,3.0,25.0,19.407,0.0,513280.7509,20.2081,,,,5.0,2.0
62.0,1085.444,1085.449,1085.444,1.0,1085.444,1085.449,,1.0,,1085.444,1085.449,26.0,3.5,3.75,26.0,20.2121,1.0,513281.5558,21.0129,,,,5.0,2.0
63.0,1086.249,1086.254,1086.249,1.0,1086.249,1086.254,,1.0,,1086.249,1086.254,27.0,2.5,1.25,27.0,21.019,1.0,513282.3629,21.8201,,,,5.0,2.0
64.0,1087.054,1087.059,1087.054,1.0,1087.054,1087.059,,1.0,,1087.054,1087.059,28.0,1.25,1.75,28.0,21.827,1.0,513283.1709,22.628,,,,5.0,2.0
65.0,1087.86,1087.865,1087.86,1.0,1087.86,1087.865,,1.0,,1087.86,1087.865,29.0,3.5,1.75,29.0,22.632,0.0,513283.9757,23.4328,,,,5.0,2.0
66.0,1088.666,1088.673,1088.666,1.0,1088.666,1088.673,,1.0,,1088.666,1088.673,30.0,3.25,1.5,30.0,23.4368,0.0,513284.7808,24.2379,,,,5.0,2.0
67.0,1089.474,1089.479,1089.474,1.0,1089.474,1089.479,,1.0,,1089.474,1089.479,31.0,3.75,2.0,31.0,24.243,1.0,513285.587,25.0441,,,,5.0,2.0
68.0,1090.279,1090.285,1090.279,1.0,1090.279,1090.285,,1.0,,1090.279,1090.285,32.0,1.5,1.75,32.0,25.0481,0.0,513286.392,25.8491,,,,5.0,2.0
69.0,1091.086,1091.091,1091.086,1.0,1091.086,1091.091,,1.0,,1091.086,1091.091,33.0,2.75,2.25,33.0,25.8556,0.0,513287.1993,26.6564,,,,5.0,2.0
70.0,1091.891,1091.899,1091.891,1.0,1091.891,1091.899,,1.0,,1091.891,1091.899,34.0,2.0,3.25,34.0,26.6618,0.0,513288.0057,27.4628,,,,5.0,2.0
71.0,1092.7,1092.705,1092.7,1.0,1092.7,1092.705,,1.0,,1092.7,1092.705,35.0,2.75,2.5,35.0,27.4676,0.0,513288.8115,28.2686,,,,5.0,2.0
72.0,1093.506,1093.51,1093.506,1.0,1093.506,1093.51,,1.0,,1093.506,1093.51,36.0,3.75,1.75,36.0,28.2729,0.0,513289.6165,29.0737,,,,5.0,2.0
73.0,1094.311,1094.315,1094.311,1.0,1094.311,1094.315,,1.0,,1094.311,1094.315,37.0,3.25,3.25,37.0,29.0777,1.0,513290.4215,29.8786,,,,5.0,2.0
74.0,1095.116,1095.122,1095.116,1.0,1095.116,1095.122,,1.0,,1095.116,1095.122,38.0,2.0,2.5,38.0,29.884,0.0,513291.2275,30.6846,,,,5.0,2.0
75.0,1095.922,1095.927,1095.922,1.0,1095.922,1095.927,,1.0,,1095.922,1095.927,39.0,1.0,1.0,39.0,30.6915,1.0,513292.0351,31.4923,,,,5.0,2.0
76.0,1096.727,1096.734,1096.727,1.0,1096.727,1096.734,,1.0,,1096.727,1096.734,40.0,2.5,3.25,40.0,31.4967,0.0,513292.8405,32.2976,,,,5.0,2.0
77.0,1097.534,1097.539,1097.534,1.0,1097.534,1097.539,,1.0,,1097.534,1097.539,41.0,3.75,1.25,41.0,32.3045,0.0,513293.6483,33.1054,,,,5.0,2.0
78.0,1098.341,1098.345,1098.341,1.0,1098.341,1098.345,,1.0,,1098.341,1098.345,42.0,2.5,2.25,42.0,33.1096,1.0,513294.4533,33.9104,,,,5.0,2.0
79.0,1099.145,1099.149,1099.145,1.0,1099.145,1099.149,,1.0,,1099.145,1099.149,43.0,1.0,2.0,43.0,33.915,1.0,513295.2587,34.7158,,,,5.0,2.0
80.0,1099.95,1099.955,1099.95,1.0,1099.95,1099.955,,1.0,,1099.95,1099.955,44.0,1.25,3.25,44.0,34.7201,0.0,513296.0637,35.5208,,,,5.0,2.0
81.0,1100.755,1100.76,1100.755,1.0,1100.755,1100.76,,1.0,,1100.755,1100.76,45.0,1.75,2.5,45.0,35.5249,0.0,513296.8686,36.3257,,,,5.0,2.0
82.0,1101.561,1101.566,1101.561,1.0,1101.561,1101.566,,1.0,,1101.561,1101.566,46.0,1.25,2.75,46.0,36.3299,1.0,513297.6736,37.1307,,,,5.0,2.0
83.0,1102.367,1102.372,1102.367,1.0,1102.367,1102.372,,1.0,,1102.367,1102.372,47.0,1.75,2.75,47.0,37.1354,1.0,513298.4789,37.936,,,,5.0,2.0
84.0,1103.173,1103.18,1103.173,1.0,1103.173,1103.18,,1.0,,1103.173,1103.18,48.0,3.0,3.0,48.0,37.9402,0.0,513299.2839,38.741,,,,5.0,2.0
85.0,1103.981,1103.986,1103.981,1.0,1103.981,1103.986,,1.0,,1103.981,1103.986,49.0,2.25,1.25,49.0,38.7477,0.0,513300.0913,39.5485,,,,5.0,2.0
86.0,1104.786,1104.791,1104.786,1.0,1104.786,1104.791,,1.0,,1104.786,1104.791,50.0,1.5,3.5,50.0,39.5542,0.0,513300.8978,40.355,,,,5.0,2.0
87.0,1105.591,1105.596,1105.591,1.0,1105.591,1105.596,,1.0,,1105.591,1105.596,51.0,1.25,3.25,51.0,40.3613,1.0,513301.705,41.1622,,,,5.0,2.0
88.0,1106.397,1106.402,1106.397,1.0,1106.397,1106.402,,1.0,,1106.397,1106.402,52.0,2.5,3.75,52.0,41.1664,0.0,513302.51,41.9672,,,,5.0,2.0
89.0,1107.202,1107.207,1107.202,1.0,1107.202,1107.207,,1.0,,1107.202,1107.207,53.0,1.0,2.25,53.0,41.9712,0.0,513303.315,42.7722,,,,5.0,2.0
90.0,1108.007,1108.012,1108.007,1.0,1108.007,1108.012,,1.0,,1108.007,1108.012,54.0,1.25,3.75,54.0,42.7767,0.0,513304.1208,43.578,,,,5.0,2.0
91.0,1108.812,1108.818,1108.812,1.0,1108.812,1108.818,,1.0,,1108.812,1108.818,55.0,1.0,3.25,55.0,43.5821,0.0,513304.926,44.3832,,,,5.0,2.0
92.0,1109.619,1109.623,1109.619,1.0,1109.619,1109.623,,1.0,,1109.619,1109.623,56.0,3.25,3.5,56.0,44.3889,0.0,513305.7326,45.1897,,,,5.0,2.0
93.0,1110.424,1110.43,1110.424,1.0,1110.424,1110.43,,1.0,,1110.424,1110.43,57.0,1.25,2.0,57.0,45.1945,0.0,513306.5384,45.9955,,,,5.0,2.0
94.0,1111.23,1111.235,1111.23,1.0,1111.23,1111.235,,1.0,,1111.23,1111.235,58.0,1.75,3.25,58.0,46.0,1.0,513307.3453,46.8024,,,,5.0,2.0
95.0,1112.036,1112.041,1112.036,1.0,1112.036,1112.041,,1.0,,1112.036,1112.041,59.0,2.25,3.5,59.0,46.8069,0.0,513308.1505,47.6077,,,,5.0,2.0
96.0,1112.842,1112.846,1112.842,1.0,1112.842,1112.846,,1.0,,1112.842,1112.846,60.0,1.5,1.75,60.0,47.6117,1.0,513308.9553,48.4124,,,,5.0,2.0
97.0,1113.647,1113.651,1113.647,1.0,1113.647,1113.651,,1.0,,1113.647,1113.651,61.0,1.25,1.25,61.0,48.4165,0.0,513309.7605,49.2177,,,,5.0,2.0
98.0,1114.452,1114.457,1114.452,1.0,1114.452,1114.457,,1.0,,1114.452,1114.457,62.0,3.5,2.5,62.0,49.2226,1.0,513310.5663,50.0234,,,,5.0,2.0
99.0,1115.257,1115.262,1115.257,1.0,1115.257,1115.262,,1.0,,1115.257,1115.262,63.0,2.5,1.25,63.0,50.0273,1.0,513311.3712,50.8283,,,,5.0,2.0
100.0,1116.063,1116.068,1116.063,1.0,1116.063,1116.068,,1.0,,1116.063,1116.068,64.0,3.5,2.75,64.0,50.8331,0.0,513312.1769,51.634,,,,5.0,2.0
101.0,1116.868,1116.874,1116.868,1.0,1116.868,1116.874,,1.0,,1116.868,1116.874,65.0,2.0,2.5,65.0,51.6389,1.0,513312.9828,52.4399,,,,5.0,2.0
102.0,1117.674,1117.679,1117.674,1.0,1117.674,1117.679,,1.0,,1117.674,1117.679,66.0,2.0,1.0,66.0,52.4442,1.0,513313.7877,53.2448,,,,5.0,2.0
103.0,1118.48,1118.484,1118.48,1.0,1118.48,1118.484,,1.0,,1118.48,1118.484,67.0,1.5,1.25,67.0,53.2499,1.0,513314.5936,54.0507,,,,5.0,2.0
104.0,1119.285,1119.29,1119.285,1.0,1119.285,1119.29,,1.0,,1119.285,1119.29,68.0,1.5,1.5,68.0,54.0555,0.0,513315.3994,54.8565,,,,5.0,2.0
105.0,1120.09,1120.095,1120.09,1.0,1120.09,1120.095,,1.0,,1120.09,1120.095,69.0,2.25,1.0,69.0,54.861,0.0,513316.2047,55.6618,,,,5.0,2.0
106.0,1120.895,1120.902,1120.895,1.0,1120.895,1120.902,,1.0,,1120.895,1120.902,70.0,3.5,3.75,70.0,55.6663,1.0,513317.0101,56.4672,,,,5.0,2.0
107.0,1121.703,1121.707,1121.703,1.0,1121.703,1121.707,,1.0,,1121.703,1121.707,71.0,2.25,2.25,71.0,56.4713,1.0,513317.815,57.2721,,,,5.0,2.0
108.0,1122.507,1122.512,1122.507,1.0,1122.507,1122.512,,1.0,,1122.507,1122.512,72.0,2.0,3.5,72.0,57.2768,0.0,513318.6206,58.0777,,,,5.0,2.0
109.0,1123.313,1123.318,1123.313,1.0,1123.313,1123.318,,1.0,,1123.313,1123.318,73.0,2.0,1.25,73.0,58.0822,1.0,513319.4259,58.8831,,,,5.0,2.0
110.0,1124.118,1124.122,1124.118,1.0,1124.118,1124.122,,1.0,,1124.118,1124.122,74.0,3.25,2.0,74.0,58.8872,1.0,513320.2311,59.6882,,,,5.0,2.0
111.0,1124.923,1124.928,1124.923,1.0,1124.923,1124.928,,1.0,,1124.923,1124.928,75.0,1.5,2.0,75.0,59.6922,1.0,513321.0357,60.4929,,,,5.0,2.0
112.0,1125.729,1125.736,1125.729,1.0,1125.729,1125.736,,1.0,,1125.729,1125.736,76.0,1.25,1.25,76.0,60.4969,1.0,513321.8407,61.2978,,,,5.0,2.0
113.0,1126.536,1126.541,1126.536,1.0,1126.536,1126.541,,1.0,,1126.536,1126.541,77.0,3.75,3.75,77.0,61.3018,1.0,513322.6455,62.1027,,,,5.0,2.0
114.0,1127.341,1127.346,1127.341,1.0,1127.341,1127.346,,1.0,,1127.341,1127.346,78.0,2.5,1.0,78.0,62.1065,1.0,513323.4502,62.9074,,,,5.0,2.0
115.0,1128.147,1128.152,1128.147,1.0,1128.147,1128.152,,1.0,,1128.147,1128.152,79.0,1.5,2.0,79.0,62.9112,1.0,513324.255,63.7121,,,,5.0,2.0
116.0,1128.952,1128.957,1128.952,1.0,1128.952,1128.957,,1.0,,1128.952,1128.957,80.0,3.25,1.0,80.0,63.7162,0.0,513325.0598,64.5169,,,,5.0,2.0
117.0,1129.758,1129.763,1129.758,1.0,1129.758,1129.763,,1.0,,1129.758,1129.763,81.0,1.0,1.5,81.0,64.5209,0.0,513325.8645,65.3216,,,,5.0,2.0
118.0,1130.564,1130.568,1130.564,1.0,1130.564,1130.568,,1.0,,1130.564,1130.568,82.0,2.75,3.0,82.0,65.3253,1.0,513326.6689,66.126,,,,5.0,2.0
119.0,1131.372,1131.375,1131.372,1.0,1131.372,1131.375,,1.0,,1131.372,1131.375,83.0,2.75,2.25,83.0,66.1297,1.0,513327.4739,66.931,,,,5.0,2.0
120.0,1132.176,1132.182,1132.176,1.0,1132.176,1132.182,,1.0,,1132.176,1132.182,84.0,2.5,1.75,84.0,66.9354,0.0,513328.2792,67.7363,,,,5.0,2.0
121.0,1132.983,1132.988,1132.983,1.0,1132.983,1132.988,,1.0,,1132.983,1132.988,85.0,3.0,1.5,85.0,67.7403,1.0,513329.0845,68.5416,,,,5.0,2.0
122.0,1133.788,1133.793,1133.788,1.0,1133.788,1133.793,,1.0,,1133.788,1133.793,86.0,3.0,1.5,86.0,68.5455,1.0,513329.8892,69.3464,,,,5.0,2.0
123.0,1134.594,1134.598,1134.594,1.0,1134.594,1134.598,,1.0,,1134.594,1134.598,87.0,2.0,2.75,87.0,69.3504,0.0,513330.6941,70.1513,,,,5.0,2.0
124.0,1135.399,1135.403,1135.399,1.0,1135.399,1135.403,,1.0,,1135.399,1135.403,88.0,3.25,1.0,88.0,70.1559,1.0,513331.4996,70.9567,,,,5.0,2.0
125.0,1136.204,1136.208,1136.204,1.0,1136.204,1136.208,,1.0,,1136.204,1136.208,89.0,3.75,3.25,89.0,70.9617,1.0,513332.3055,71.7626,,,,5.0,2.0
126.0,1137.008,1137.013,1137.008,1.0,1137.008,1137.013,,1.0,,1137.008,1137.013,90.0,2.25,2.25,90.0,71.7665,1.0,513333.1101,72.5672,,,,5.0,2.0
127.0,1137.814,1137.821,1137.814,1.0,1137.814,1137.821,,1.0,,1137.814,1137.821,91.0,2.25,1.75,91.0,72.5712,1.0,513333.9157,73.3728,,,,5.0,2.0
128.0,1138.622,1138.626,1138.622,1.0,1138.622,1138.626,,1.0,,1138.622,1138.626,92.0,2.5,2.5,92.0,73.3778,1.0,513334.7218,74.1789,,,,5.0,2.0
129.0,1139.426,1139.431,1139.426,1.0,1139.426,1139.431,,1.0,,1139.426,1139.431,93.0,3.25,3.25,93.0,74.183,1.0,513335.5267,74.9839,,,,5.0,2.0
130.0,1140.231,1140.235,1140.231,1.0,1140.231,1140.235,,1.0,,1140.231,1140.235,94.0,2.75,2.0,94.0,74.9878,0.0,513336.3314,75.7885,,,,5.0,2.0
131.0,1141.036,1141.04,1141.036,1.0,1141.036,1141.04,,1.0,,1141.036,1141.04,95.0,3.25,2.5,95.0,75.7923,1.0,513337.136,76.5932,,,,5.0,2.0
132.0,1141.841,1141.845,1141.841,1.0,1141.841,1141.845,,1.0,,1141.841,1141.845,96.0,2.0,3.75,96.0,76.5975,1.0,513337.9418,77.3989,,,,5.0,2.0
133.0,1142.645,1142.65,1142.645,1.0,1142.645,1142.65,,1.0,,1142.645,1142.65,97.0,3.5,2.5,97.0,77.4029,0.0,513338.7466,78.2037,,,,5.0,2.0
134.0,1143.45,1143.455,1143.45,1.0,1143.45,1143.455,,1.0,,1143.45,1143.455,98.0,2.75,2.75,98.0,78.2074,0.0,513339.5509,79.0081,,,,5.0,2.0
135.0,1144.256,1144.26,1144.256,1.0,1144.256,1144.26,,1.0,,1144.256,1144.26,99.0,1.5,1.75,99.0,79.0118,1.0,513340.3553,79.8124,,,,5.0,2.0
136.0,1145.06,,1145.06,1.0,1145.06,1270.943,,1.0,,1145.06,1270.943,100.0,2.25,1.5,100.0,79.8171,0.0,513341.1608,80.6179,,,,5.0,2.0
137.0,1276.879,1277.391,,1.0,1276.879,1277.391,,1.0,,1276.879,1277.391,1.0,3.25,1.25,1.0,0.53915,1.0,512382.7184,1.1663,,,,2.0,1.0
138.0,1278.028,1278.54,1278.028,1.0,1278.028,1278.54,,1.0,,1278.028,1278.54,2.0,2.25,3.5,2.0,1.6891,1.0,512384.9924,3.4439,,,,2.0,1.0
139.0,1280.3,1280.808,1280.3,1.0,1280.3,1280.808,,1.0,,1280.3,1280.808,3.0,3.25,3.75,3.0,3.9572,1.0,512387.3854,5.8333,,,,2.0,1.0
140.0,1282.691,1283.196,1282.691,1.0,1282.691,1283.196,,1.0,,1282.691,1283.196,4.0,2.75,1.0,4.0,6.3448,1.0,512388.3979,6.8458,,,,2.0,1.0
141.0,1283.76,1284.267,1283.76,1.0,1283.76,1284.267,,0.0,,1283.76,1284.267,5.0,3.5,3.75,5.0,7.4154,0.0,512390.8456,9.2938,,,,2.0,1.0
142.0,1286.149,1286.652,1286.149,1.0,1286.149,1286.652,,0.0,,1286.149,1286.652,6.0,3.0,3.25,6.0,9.8018,0.0,512392.9797,11.4276,,,,2.0,1.0
143.0,1288.283,1288.787,1288.283,1.0,1288.283,1288.787,,1.0,,1288.283,1288.787,7.0,3.0,2.0,7.0,11.9362,1.0,512394.489,12.9369,,,,2.0,1.0
144.0,1289.791,1290.295,1289.791,1.0,1289.791,1290.295,,1.0,,1289.791,1290.295,8.0,2.75,1.5,8.0,13.4441,1.0,512395.747,14.1949,,,,2.0,1.0
145.0,1291.05,1291.554,1291.05,1.0,1291.05,1291.554,,0.0,,1291.05,1291.554,9.0,3.0,1.0,9.0,14.7031,0.0,512396.7563,15.2042,,,,2.0,1.0
146.0,1292.058,1292.562,1292.058,1.0,1292.058,1292.562,,1.0,,1292.058,1292.562,10.0,1.75,1.0,10.0,15.7112,1.0,512397.764,16.2119,,,,2.0,1.0
147.0,1293.068,1293.572,1293.068,1.0,1293.068,1293.572,,1.0,,1293.068,1293.572,11.0,1.25,3.25,11.0,16.7213,1.0,512399.8991,18.347,,,,2.0,1.0
148.0,1295.203,1295.707,1295.203,1.0,1295.203,1295.707,,0.0,,1295.203,1295.707,12.0,3.0,1.75,12.0,18.8563,0.0,512401.2843,19.7321,,,,2.0,1.0
149.0,1296.586,1297.09,1296.586,1.0,1296.586,1297.09,,0.0,,1296.586,1297.09,13.0,3.75,1.0,13.0,20.2394,0.0,512402.2922,20.7401,,,,2.0,1.0
150.0,1297.594,1298.098,1297.594,1.0,1297.594,1298.098,,1.0,,1297.594,1298.098,14.0,2.25,2.0,14.0,21.2474,1.0,512403.8002,22.2481,,,,2.0,1.0
151.0,1299.102,1299.606,1299.102,1.0,1299.102,1299.606,,1.0,,1299.102,1299.606,15.0,3.25,3.25,15.0,22.7554,1.0,512405.9332,24.3811,,,,2.0,1.0
152.0,1301.236,1301.739,1301.236,1.0,1301.236,1301.739,,1.0,,1301.236,1301.739,16.0,1.5,2.25,16.0,24.8886,1.0,512407.5665,26.0144,,,,2.0,1.0
153.0,1302.869,1303.373,1302.869,1.0,1302.869,1303.373,,0.0,,1302.869,1303.373,17.0,2.25,2.75,17.0,26.5221,0.0,512409.45,27.8979,,,,2.0,1.0
154.0,1304.752,1305.256,1304.752,1.0,1304.752,1305.256,,0.0,,1304.752,1305.256,18.0,3.0,3.25,18.0,28.4059,0.0,512411.5838,30.0317,,,,2.0,1.0
155.0,1306.886,1307.389,1306.886,1.0,1306.886,1307.389,,0.0,,1306.886,1307.389,19.0,1.75,3.0,19.0,30.5387,0.0,512413.5917,32.0396,,,,2.0,1.0
156.0,1308.894,1309.398,1308.894,1.0,1308.894,1309.398,,1.0,,1308.894,1309.398,20.0,2.75,1.25,20.0,32.5469,1.0,512414.7253,33.1732,,,,2.0,1.0
157.0,1310.027,1310.531,1310.027,1.0,1310.027,1310.531,,0.0,,1310.027,1310.531,21.0,1.25,2.25,21.0,33.6803,0.0,512416.358,34.8059,,,,2.0,1.0
158.0,1311.66,1312.163,1311.66,1.0,1311.66,1312.163,,1.0,,1311.66,1312.163,22.0,3.75,2.0,22.0,35.3127,1.0,512417.8656,36.3134,,,,2.0,1.0
159.0,1313.167,1313.672,1313.167,1.0,1313.167,1313.672,,0.0,,1313.167,1313.672,23.0,2.75,1.5,23.0,36.8212,0.0,512419.1242,37.572,,,,2.0,1.0
160.0,1314.427,1314.931,1314.427,1.0,1314.427,1314.931,,0.0,,1314.427,1314.931,24.0,3.25,1.75,24.0,38.08,0.0,512420.5079,38.9558,,,,2.0,1.0
161.0,1315.81,1316.314,1315.81,1.0,1315.81,1316.314,,1.0,,1315.81,1316.314,25.0,2.5,3.0,25.0,39.4636,1.0,512422.5164,40.9643,,,,2.0,1.0
162.0,1317.818,1318.322,1317.818,1.0,1317.818,1318.322,,0.0,,1317.818,1318.322,26.0,3.5,3.75,26.0,41.4714,0.0,512424.8994,43.3472,,,,2.0,1.0
163.0,1320.201,1320.705,1320.201,1.0,1320.201,1320.705,,0.0,,1320.201,1320.705,27.0,2.5,1.25,27.0,43.8545,0.0,512426.0324,44.4802,,,,2.0,1.0
164.0,1321.335,1321.839,1321.335,1.0,1321.335,1321.839,,1.0,,1321.335,1321.839,28.0,1.25,1.75,28.0,44.9881,1.0,512427.416,45.8639,,,,2.0,1.0
165.0,1322.718,1323.222,1322.718,1.0,1322.718,1323.222,,1.0,,1322.718,1323.222,29.0,3.5,1.75,29.0,46.3711,1.0,512428.799,47.2468,,,,2.0,1.0
166.0,1324.102,1324.605,1324.102,1.0,1324.102,1324.605,,0.0,,1324.102,1324.605,30.0,3.25,1.5,30.0,47.7545,0.0,512430.0573,48.5051,,,,2.0,1.0
167.0,1325.359,1325.863,1325.359,1.0,1325.359,1325.863,,1.0,,1325.359,1325.863,31.0,3.75,2.0,31.0,49.0124,1.0,512431.5652,50.0131,,,,2.0,1.0
168.0,1326.867,1327.371,1326.867,1.0,1326.867,1327.371,,0.0,,1326.867,1327.371,32.0,1.5,1.75,32.0,50.5204,0.0,512432.9483,51.3962,,,,2.0,1.0
169.0,1328.251,1328.754,1328.251,1.0,1328.251,1328.754,,0.0,,1328.251,1328.754,33.0,2.75,2.25,33.0,51.9037,0.0,512434.5814,53.0293,,,,2.0,1.0
170.0,1329.884,1330.389,1329.884,1.0,1329.884,1330.389,,1.0,,1329.884,1330.389,34.0,2.0,3.25,34.0,53.538,1.0,512436.7158,55.1637,,,,2.0,1.0
171.0,1332.018,1332.525,1332.018,1.0,1332.018,1332.525,,0.0,,1332.018,1332.525,35.0,2.75,2.5,35.0,55.6746,0.0,512438.4773,56.9252,,,,2.0,1.0
172.0,1333.779,1334.282,1333.779,1.0,1333.779,1334.282,,1.0,,1333.779,1334.282,36.0,3.75,1.75,36.0,57.4317,1.0,512439.8596,58.3074,,,,2.0,1.0
173.0,1335.161,1335.666,1335.161,1.0,1335.161,1335.666,,0.0,,1335.161,1335.666,37.0,3.25,3.25,37.0,58.8159,0.0,512441.9941,60.4419,,,,2.0,1.0
174.0,1337.299,1337.802,1337.299,1.0,1337.299,1337.802,,1.0,,1337.299,1337.802,38.0,2.0,2.5,38.0,60.9515,1.0,512443.7544,62.2022,,,,2.0,1.0
175.0,1339.059,1339.563,1339.059,1.0,1339.059,1339.563,,0.0,,1339.059,1339.563,39.0,1.0,1.0,39.0,62.7119,0.0,512444.7648,63.2127,,,,2.0,1.0
176.0,1340.067,1340.571,1340.067,1.0,1340.067,1340.571,,0.0,,1340.067,1340.571,40.0,2.5,3.25,40.0,63.7205,0.0,512446.8983,65.3462,,,,2.0,1.0
177.0,1342.2,1342.704,1342.2,1.0,1342.2,1342.704,,1.0,,1342.2,1342.704,41.0,3.75,1.25,41.0,65.8539,1.0,512448.0316,66.4794,,,,2.0,1.0
178.0,1343.333,1343.837,1343.333,1.0,1343.333,1343.837,,0.0,,1343.333,1343.837,42.0,2.5,2.25,42.0,66.9869,0.0,512449.6646,68.1125,,,,2.0,1.0
179.0,1344.967,1345.472,1344.967,1.0,1344.967,1345.472,,1.0,,1344.967,1345.472,43.0,1.0,2.0,43.0,68.6219,1.0,512451.1747,69.6226,,,,2.0,1.0
180.0,1346.479,1346.982,1346.479,1.0,1346.479,1346.982,,1.0,,1346.479,1346.982,44.0,1.25,3.25,44.0,70.1313,1.0,512453.3092,71.757,,,,2.0,1.0
181.0,1348.611,1349.117,1348.611,1.0,1348.611,1349.117,,0.0,,1348.611,1349.117,45.0,1.75,2.5,45.0,72.2668,0.0,512455.0696,73.5174,,,,2.0,1.0
182.0,1350.373,1350.876,1350.373,1.0,1350.373,1350.876,,0.0,,1350.373,1350.876,46.0,1.25,2.75,46.0,74.0254,0.0,512456.9532,75.4011,,,,2.0,1.0
183.0,1352.258,1352.762,1352.258,1.0,1352.258,1352.762,,1.0,,1352.258,1352.762,47.0,1.75,2.75,47.0,75.911,1.0,512458.8389,77.2867,,,,2.0,1.0
184.0,1354.144,1354.648,1354.144,1.0,1354.144,1354.648,,1.0,,1354.144,1354.648,48.0,3.0,3.0,48.0,77.7971,1.0,512460.8499,79.2978,,,,2.0,1.0
185.0,1356.152,1356.655,1356.152,1.0,1356.152,1356.655,,1.0,,1356.152,1356.655,49.0,2.25,1.25,49.0,79.8048,1.0,512461.9826,80.4305,,,,2.0,1.0
186.0,1357.285,1357.789,1357.285,1.0,1357.285,1357.789,,1.0,,1357.285,1357.789,50.0,1.5,3.5,50.0,80.938,1.0,512464.2407,82.6885,,,,2.0,1.0
187.0,1359.542,1360.046,1359.542,1.0,1359.542,1360.046,,0.0,,1359.542,1360.046,51.0,1.25,3.25,51.0,83.1954,0.0,512466.3733,84.8211,,,,2.0,1.0
188.0,1361.677,1362.18,1361.677,1.0,1361.677,1362.18,,1.0,,1361.677,1362.18,52.0,2.5,3.75,52.0,85.3295,1.0,512468.7574,87.2052,,,,2.0,1.0
189.0,1364.06,1364.563,1364.06,1.0,1364.06,1364.563,,1.0,,1364.06,1364.563,53.0,1.0,2.25,53.0,87.7127,1.0,512470.3905,88.8383,,,,2.0,1.0
190.0,1365.693,1366.196,1365.693,1.0,1365.693,1366.196,,1.0,,1365.693,1366.196,54.0,1.25,3.75,54.0,89.3459,1.0,512472.7737,91.2215,,,,2.0,1.0
191.0,1368.076,1368.58,1368.076,1.0,1368.076,1368.58,,1.0,,1368.076,1368.58,55.0,1.0,3.25,55.0,91.7293,1.0,512474.9071,93.355,,,,2.0,1.0
192.0,1370.21,1370.715,1370.21,1.0,1370.21,1370.715,,1.0,,1370.21,1370.715,56.0,3.25,3.5,56.0,93.8639,1.0,512477.167,95.6148,,,,2.0,1.0
193.0,1372.469,1372.973,1372.469,1.0,1372.469,1372.973,,0.0,,1372.469,1372.973,57.0,1.25,2.0,57.0,96.1224,0.0,512478.6751,97.123,,,,2.0,1.0
194.0,1373.977,1374.482,1373.977,1.0,1373.977,1374.482,,0.0,,1373.977,1374.482,58.0,1.75,3.25,58.0,97.6303,0.0,512480.8088,99.2566,,,,2.0,1.0
195.0,1376.111,1376.615,1376.111,1.0,1376.111,1376.615,,0.0,,1376.111,1376.615,59.0,2.25,3.5,59.0,99.7644,0.0,512483.0672,101.5151,,,,2.0,1.0
196.0,1378.37,1378.873,1378.37,1.0,1378.37,1378.873,,1.0,,1378.37,1378.873,60.0,1.5,1.75,60.0,102.0229,1.0,512484.4506,102.8985,,,,2.0,1.0
197.0,1379.753,1380.257,1379.753,1.0,1379.753,1380.257,,0.0,,1379.753,1380.257,61.0,1.25,1.25,61.0,103.4061,0.0,512485.5838,104.0317,,,,2.0,1.0
198.0,1380.886,1381.39,1380.886,1.0,1380.886,1381.39,,1.0,,1380.886,1381.39,62.0,3.5,2.5,62.0,104.5392,1.0,512487.3419,105.7897,,,,2.0,1.0
199.0,1382.644,1383.147,1382.644,1.0,1382.644,1383.147,,1.0,,1382.644,1383.147,63.0,2.5,1.25,63.0,106.2963,1.0,512488.4741,106.9219,,,,2.0,1.0
200.0,1383.776,1384.28,1383.776,1.0,1383.776,1384.28,,0.0,,1383.776,1384.28,64.0,3.5,2.75,64.0,107.429,0.0,512490.3566,108.8045,,,,2.0,1.0
201.0,1385.659,1386.167,1385.659,1.0,1385.659,1386.167,,1.0,,1385.659,1386.167,65.0,2.0,2.5,65.0,109.316,1.0,512492.1188,110.5667,,,,2.0,1.0
202.0,1387.421,1387.927,1387.421,1.0,1387.421,1387.927,,0.0,,1387.421,1387.927,66.0,2.0,1.0,66.0,111.0763,0.0,512493.1291,111.577,,,,2.0,1.0
203.0,1388.432,1388.935,1388.432,1.0,1388.432,1388.935,,1.0,,1388.432,1388.935,67.0,1.5,1.25,67.0,112.0849,1.0,512494.2627,112.7106,,,,2.0,1.0
204.0,1389.564,1390.068,1389.564,1.0,1389.564,1390.068,,0.0,,1389.564,1390.068,68.0,1.5,1.5,68.0,113.2175,0.0,512495.5203,113.9682,,,,2.0,1.0
205.0,1390.822,1391.325,1390.822,1.0,1390.822,1391.325,,0.0,,1390.822,1391.325,69.0,2.25,1.0,69.0,114.4749,0.0,512496.5277,114.9756,,,,2.0,1.0
206.0,1391.83,1392.334,1391.83,1.0,1391.83,1392.334,,1.0,,1391.83,1392.334,70.0,3.5,3.75,70.0,115.4835,1.0,512498.9115,117.3593,,,,2.0,1.0
207.0,1394.213,1394.717,1394.213,1.0,1394.213,1394.717,,0.0,,1394.213,1394.717,71.0,2.25,2.25,71.0,117.8661,0.0,512500.5453,118.9932,,,,2.0,1.0
208.0,1395.847,1396.351,1395.847,1.0,1395.847,1396.351,,0.0,,1395.847,1396.351,72.0,2.0,3.5,72.0,119.4999,0.0,512502.8027,121.2506,,,,2.0,1.0
209.0,1398.106,1398.609,1398.106,1.0,1398.106,1398.609,,0.0,,1398.106,1398.609,73.0,2.0,1.25,73.0,121.7587,0.0,512503.9365,122.3843,,,,2.0,1.0
210.0,1399.241,1399.744,1399.241,1.0,1399.241,1399.744,,0.0,,1399.241,1399.744,74.0,3.25,2.0,74.0,122.8937,0.0,512505.4465,123.8944,,,,2.0,1.0
211.0,1400.748,1401.253,1400.748,1.0,1400.748,1401.253,,0.0,,1400.748,1401.253,75.0,1.5,2.0,75.0,124.4016,0.0,512506.955,125.4028,,,,2.0,1.0
212.0,1402.257,1402.761,1402.257,1.0,1402.257,1402.761,,1.0,,1402.257,1402.761,76.0,1.25,1.25,76.0,125.9103,1.0,512508.0881,126.536,,,,2.0,1.0
213.0,1403.39,1403.894,1403.39,1.0,1403.39,1403.894,,1.0,,1403.39,1403.894,77.0,3.75,3.75,77.0,127.0436,1.0,512510.4714,128.9192,,,,2.0,1.0
214.0,1405.775,1406.279,1405.775,1.0,1405.775,1406.279,,0.0,,1405.775,1406.279,78.0,2.5,1.0,78.0,129.4283,0.0,512511.4811,129.929,,,,2.0,1.0
215.0,1406.783,1407.286,1406.783,1.0,1406.783,1407.286,,1.0,,1406.783,1407.286,79.0,1.5,2.0,79.0,130.4358,1.0,512512.9887,131.4366,,,,2.0,1.0
216.0,1408.291,1408.795,1408.291,1.0,1408.291,1408.795,,1.0,,1408.291,1408.795,80.0,3.25,1.0,80.0,131.9441,1.0,512513.9968,132.4447,,,,2.0,1.0
217.0,1409.299,1409.803,1409.299,1.0,1409.299,1409.803,,0.0,,1409.299,1409.803,81.0,1.0,1.5,81.0,132.952,0.0,512515.2547,133.7026,,,,2.0,1.0
218.0,1410.558,1411.061,1410.558,1.0,1410.558,1411.061,,1.0,,1410.558,1411.061,82.0,2.75,3.0,82.0,134.2102,1.0,512517.263,135.7108,,,,2.0,1.0
219.0,1412.566,1413.07,1412.566,1.0,1412.566,1413.07,,0.0,,1412.566,1413.07,83.0,2.75,2.25,83.0,136.2195,0.0,512518.8973,137.3452,,,,2.0,1.0
220.0,1414.201,1414.705,1414.201,1.0,1414.201,1414.705,,1.0,,1414.201,1414.705,84.0,2.5,1.75,84.0,137.8542,1.0,512520.2818,138.7297,,,,2.0,1.0
221.0,1415.583,1416.087,1415.583,1.0,1415.583,1416.087,,1.0,,1415.583,1416.087,85.0,3.0,1.5,85.0,139.2364,1.0,512521.5391,139.987,,,,2.0,1.0
222.0,1416.841,1417.345,1416.841,1.0,1416.841,1417.345,,0.0,,1416.841,1417.345,86.0,3.0,1.5,86.0,140.4942,0.0,512522.7969,141.2447,,,,2.0,1.0
223.0,1418.098,1418.602,1418.098,1.0,1418.098,1418.602,,0.0,,1418.098,1418.602,87.0,2.0,2.75,87.0,141.751,0.0,512524.6787,143.1266,,,,2.0,1.0
224.0,1419.981,1420.484,1419.981,1.0,1419.981,1420.484,,0.0,,1419.981,1420.484,88.0,3.25,1.0,88.0,143.6334,0.0,512525.6862,144.134,,,,2.0,1.0
225.0,1420.988,1421.493,1420.988,1.0,1420.988,1421.493,,0.0,,1420.988,1421.493,89.0,3.75,3.25,89.0,144.6428,0.0,512527.8205,146.2684,,,,2.0,1.0
226.0,1423.122,1423.626,1423.122,1.0,1423.122,1423.626,,1.0,,1423.122,1423.626,90.0,2.25,2.25,90.0,146.775,1.0,512529.4529,147.9007,,,,2.0,1.0
227.0,1424.755,1425.259,1424.755,1.0,1424.755,1425.259,,0.0,,1424.755,1425.259,91.0,2.25,1.75,91.0,148.4075,0.0,512530.8358,149.2837,,,,2.0,1.0
228.0,1426.139,1426.642,1426.139,1.0,1426.139,1426.642,,1.0,,1426.139,1426.642,92.0,2.5,2.5,92.0,149.7916,1.0,512532.5944,151.0422,,,,2.0,1.0
229.0,1427.897,1428.4,1427.897,1.0,1427.897,1428.4,,0.0,,1427.897,1428.4,93.0,3.25,3.25,93.0,151.5498,0.0,512534.7275,153.1753,,,,2.0,1.0
230.0,1430.029,1430.533,1430.029,1.0,1430.029,1430.533,,0.0,,1430.029,1430.533,94.0,2.75,2.0,94.0,153.682,0.0,512536.2347,154.6826,,,,2.0,1.0
231.0,1431.537,1432.042,1431.537,1.0,1431.537,1432.042,,0.0,,1431.537,1432.042,95.0,3.25,2.5,95.0,155.1911,0.0,512537.9939,156.4418,,,,2.0,1.0
232.0,1433.296,1433.801,1433.296,1.0,1433.296,1433.801,,1.0,,1433.296,1433.801,96.0,2.0,3.75,96.0,156.95,1.0,512540.3776,158.8255,,,,2.0,1.0
233.0,1435.681,1436.184,1435.681,1.0,1435.681,1436.184,,0.0,,1435.681,1436.184,97.0,3.5,2.5,97.0,159.3336,0.0,512542.1364,160.5842,,,,2.0,1.0
234.0,1437.438,1437.942,1437.438,1.0,1437.438,1437.942,,1.0,,1437.438,1437.942,98.0,2.75,2.75,98.0,161.0914,1.0,512544.0191,162.467,,,,2.0,1.0
235.0,1439.321,1439.826,1439.321,1.0,1439.321,1439.826,,0.0,,1439.321,1439.826,99.0,1.5,1.75,99.0,162.9757,0.0,512545.4035,163.8514,,,,2.0,1.0
236.0,1440.705,1441.209,1440.705,1.0,1440.705,1441.209,,1.0,,1440.705,1441.209,100.0,2.25,1.5,100.0,164.3581,0.0,512546.6609,165.1087,,,,2.0,1.0
238.0,1592.924,1598.433,1598.934,1.0,1592.924,1596.929,,1.0,,1592.924,1598.934,1.0,3.25,1.25,1.0,1.5029,0.0,512696.368,6.0207,0.000199,4.0167,-1.0,3.0,3.0
239.0,1602.441,1607.949,1608.453,1.0,1602.441,1606.445,1607.912,1.0,1.467,1602.441,1608.453,2.0,2.25,3.5,2.0,1.5028,1.0,512703.6347,13.2874,7.2745,11.2837,-1.0,3.0,3.0
240.0,1612.21,1617.717,1618.219,1.0,1612.21,1616.214,1617.386,1.0,1.172,1612.21,1618.219,3.0,3.25,3.75,3.0,1.5031,1.0,512713.1512,22.8039,16.7907,20.7997,512675.008,3.0,3.0
241.0,1619.231,1624.743,1625.247,1.0,1619.231,1623.237,,1.0,,1619.231,1625.247,4.0,2.75,1.0,4.0,1.5027,1.0,512722.9196,32.5723,26.5594,30.5685,512664.9583,3.0,3.0
242.0,1629.003,1634.51,1635.011,1.0,1629.003,1633.007,,1.0,,1629.003,1635.011,5.0,3.5,3.75,5.0,1.5041,1.0,512729.9456,39.5986,33.5782,37.5916,-1.0,3.0,3.0
243.0,1638.267,,,1.0,1638.267,1642.271,,1.0,,1638.267,1654.892,6.0,3.0,3.25,6.0,1.5024,1.0,512739.712,49.3647,43.3544,47.3616,-1.0,3.0,3.0
244.0,1710.794,1716.304,1716.806,1.0,1710.794,1714.8,,0.0,,1710.794,1716.806,1.0,3.25,1.25,1.0,1.5028,0.0,512821.5062,6.0183,0.0005158,4.014,-1.0,4.0,3.0
245.0,1718.063,1723.571,1724.082,1.0,1718.063,1722.068,,0.0,,1718.063,1724.082,2.0,2.25,3.5,2.0,1.5027,0.0,512828.7732,13.2852,7.2724,11.2817,-1.0,4.0,3.0
246.0,1727.588,1733.096,1733.598,1.0,1727.588,1731.593,,0.0,,1727.588,1733.598,3.0,3.25,3.75,3.0,1.5027,0.0,512838.2986,22.8107,16.7974,20.8068,-1.0,4.0,3.0
247.0,1737.355,1742.862,1743.364,1.0,1737.355,1741.359,1742.034,1.0,0.675,1737.355,1743.364,4.0,2.75,1.0,4.0,1.503,1.0,512848.0645,32.5765,26.5648,30.5725,512789.5964,4.0,3.0
248.0,1744.372,1749.883,1750.387,1.0,1744.372,1748.378,,1.0,,1744.372,1750.387,5.0,3.5,3.75,5.0,1.5042,1.0,512855.087,39.5994,33.5803,37.5917,-1.0,4.0,3.0
249.0,1754.145,1759.652,1760.156,1.0,1754.145,1758.149,1758.754,1.0,0.605,1754.145,1760.156,6.0,3.0,3.25,6.0,1.5029,1.0,512864.8539,49.366,43.3554,47.3624,512772.7364,4.0,3.0
250.0,1763.413,1768.92,1769.422,1.0,1763.413,1767.417,1768.185,0.0,0.768,1763.413,1769.422,7.0,3.0,2.0,7.0,1.5026,0.0,512874.1222,58.6342,52.6216,56.6309,512763.6334,4.0,3.0
251.0,1771.428,1776.935,1777.437,1.0,1771.428,1775.433,1776.347,0.0,0.914,1771.428,1777.437,8.0,2.75,1.5,8.0,1.5026,0.0,512882.1377,66.6497,60.6379,64.6464,512755.7617,4.0,3.0
252.0,1778.943,1784.449,1784.95,1.0,1778.943,1782.947,,0.0,,1778.943,1784.95,9.0,3.0,1.0,9.0,1.5023,0.0,512889.6513,74.1634,68.1532,72.1604,-1.0,4.0,3.0
253.0,1785.957,1791.465,1791.966,1.0,1785.957,1789.961,1790.699,1.0,0.738,1785.957,1791.966,10.0,1.75,1.0,10.0,1.5035,1.0,512896.6668,81.1789,75.1665,79.1747,512741.0565,4.0,3.0
254.0,1792.972,1798.479,1798.98,1.0,1792.972,1796.976,1797.761,1.0,0.785,1792.972,1798.98,11.0,1.25,3.25,11.0,1.5027,1.0,512903.6809,88.193,82.1825,86.1897,512734.0898,4.0,3.0
255.0,1802.236,1807.743,1808.243,1.0,1802.236,1806.24,1806.985,0.0,0.745,1802.236,1808.243,12.0,3.0,1.75,12.0,1.5026,0.0,512912.9446,97.4566,91.4463,95.4534,512724.7862,4.0,3.0
256.0,1810.0,1815.508,1816.009,1.0,1810.0,1814.005,1814.617,0.0,0.612,1810.0,1816.009,13.0,3.75,1.0,13.0,1.5027,0.0,512920.7099,105.2219,99.2108,103.2185,512716.8883,4.0,3.0
257.0,1817.015,1822.521,1823.022,1.0,1817.015,1821.018,1821.609,1.0,0.591,1817.015,1823.022,14.0,2.25,2.0,14.0,1.5025,1.0,512927.723,112.235,106.2254,110.2319,512709.8524,4.0,3.0
258.0,1825.028,1830.535,1831.036,1.0,1825.028,1829.032,1829.585,1.0,0.553,1825.028,1831.036,15.0,3.25,3.25,15.0,1.5029,1.0,512935.737,120.249,114.2382,118.2456,512701.8018,4.0,3.0
259.0,1834.291,1839.798,1840.299,1.0,1834.291,1838.295,1839.017,0.0,0.722,1834.291,1840.299,16.0,1.5,2.25,16.0,1.5026,0.0,512945.0002,129.5123,123.502,127.509,512692.7069,4.0,3.0
260.0,1842.555,1848.062,1848.564,1.0,1842.555,1846.559,1847.385,0.0,0.826,1842.555,1848.564,17.0,2.25,2.75,17.0,1.5028,0.0,512953.2644,137.7765,131.7654,135.773,512684.5477,4.0,3.0
261.0,1851.32,1856.826,1857.327,1.0,1851.32,1855.323,1856.041,1.0,0.718,1851.32,1857.327,18.0,3.0,3.25,18.0,1.5027,1.0,512962.0283,146.5403,140.5298,144.5371,512675.6749,4.0,3.0
262.0,1860.583,1866.089,1866.591,1.0,1860.583,1864.586,1865.313,1.0,0.727,1860.583,1866.591,19.0,1.75,3.0,19.0,1.5027,1.0,512971.2916,155.8036,149.7933,153.8002,512666.42,4.0,3.0
263.0,1869.597,1875.103,1875.604,1.0,1869.597,1873.6,1874.209,0.0,0.609,1869.597,1875.604,20.0,2.75,1.25,20.0,1.5026,0.0,512980.3053,164.8173,158.8069,162.8141,512657.2887,4.0,3.0
264.0,1876.86,1882.368,1882.87,1.0,1876.86,1880.865,1881.489,0.0,0.624,1876.86,1882.87,21.0,1.25,2.25,21.0,1.5027,0.0,512987.5706,172.0826,166.0703,170.0792,512650.0402,4.0,3.0
265.0,1885.126,1890.632,1891.134,1.0,1885.126,1889.129,1889.793,1.0,0.664,1885.126,1891.134,22.0,3.75,2.0,22.0,1.5026,1.0,512995.8343,180.3463,174.3365,178.343,512641.8142,4.0,3.0
266.0,1893.139,1898.646,1899.148,1.0,1893.139,1897.143,1897.673,1.0,0.53,1893.139,1899.148,23.0,2.75,1.5,23.0,1.5028,1.0,513003.8483,188.3604,182.3497,186.3569,512633.6671,4.0,3.0
267.0,1900.653,1906.16,1906.662,1.0,1900.653,1904.657,1905.249,1.0,0.592,1900.653,1906.662,24.0,3.25,1.75,24.0,1.5025,1.0,513011.3621,195.8741,189.8638,193.8706,512626.2151,4.0,3.0
268.0,1908.418,1913.924,1914.425,1.0,1908.418,1912.421,1913.153,0.0,0.732,1908.418,1914.425,25.0,2.5,3.0,25.0,1.5027,0.0,513019.126,203.6381,197.6276,201.6347,512618.5915,4.0,3.0
269.0,1917.431,1922.938,1923.438,1.0,1917.431,1921.435,1922.025,0.0,0.59,1917.431,1923.438,26.0,3.5,3.75,26.0,1.5027,0.0,513028.1395,212.6515,206.6415,210.6483,512609.436,4.0,3.0
270.0,1927.194,1932.701,1933.202,1.0,1927.194,1931.198,1932.112,0.0,0.914,1927.194,1933.202,27.0,2.5,1.25,27.0,1.5028,0.0,513037.9027,222.4147,216.4044,220.4113,512599.9977,4.0,3.0
271.0,1934.458,1939.965,1940.467,1.0,1934.458,1938.462,1939.353,1.0,0.891,1934.458,1940.467,28.0,1.25,1.75,28.0,1.5027,1.0,513045.1674,229.6794,223.6681,227.6761,512592.7095,4.0,3.0
272.0,1942.222,1947.728,1948.23,1.0,1942.222,1946.226,1946.865,0.0,0.639,1942.222,1948.23,29.0,3.5,1.75,29.0,1.5027,0.0,513052.9306,237.4426,231.4327,235.4393,512584.6937,4.0,3.0
273.0,1949.985,1955.492,1955.994,1.0,1949.985,1953.989,,1.0,,1949.985,1955.994,30.0,3.25,1.5,30.0,1.5025,0.0,513060.6944,245.2065,239.1958,243.2029,-1.0,4.0,3.0
274.0,2156.672,2156.686,2156.672,1.0,2156.672,2156.686,,1.0,,2156.672,2156.686,1.0,3.25,1.25,1.0,0.024677,0.0,513261.3736,0.83071,,,,5.0,2.0
275.0,2157.487,2157.494,2157.487,1.0,2157.487,2157.494,,1.0,,2157.487,2157.494,2.0,2.25,3.5,2.0,0.83969,0.0,513262.1886,1.6458,,,,5.0,2.0
276.0,2158.295,2158.309,2158.295,1.0,2158.295,2158.309,,1.0,,2158.295,2158.309,3.0,3.25,3.75,3.0,1.6524,0.0,513262.9981,2.4553,,,,5.0,2.0
277.0,2159.115,2159.125,2159.115,1.0,2159.115,2159.125,,1.0,,2159.115,2159.125,4.0,2.75,1.0,4.0,2.4675,1.0,513263.8164,3.2736,,,,5.0,2.0
278.0,2159.93,2159.937,2159.93,1.0,2159.93,2159.937,,1.0,,2159.93,2159.937,5.0,3.5,3.75,5.0,3.2821,0.0,513264.6329,4.0903,,,,5.0,2.0
279.0,2160.738,2160.742,2160.738,1.0,2160.738,2160.742,,1.0,,2160.738,2160.742,6.0,3.0,3.25,6.0,4.0955,1.0,513265.4392,4.8963,,,,5.0,2.0
280.0,2161.543,2161.548,2161.543,1.0,2161.543,2161.548,,1.0,,2161.543,2161.548,7.0,3.0,2.0,7.0,4.9007,1.0,513266.2449,5.702,,,,5.0,2.0
281.0,2162.349,2162.354,2162.349,1.0,2162.349,2162.354,,1.0,,2162.349,2162.354,8.0,2.75,1.5,8.0,5.7066,1.0,513267.0507,6.5078,,,,5.0,2.0
282.0,2163.154,2163.159,2163.154,1.0,2163.154,2163.159,,1.0,,2163.154,2163.159,9.0,3.0,1.0,9.0,6.5121,0.0,513267.856,7.3131,,,,5.0,2.0
283.0,2163.96,2163.964,2163.96,1.0,2163.96,2163.964,,1.0,,2163.96,2163.964,10.0,1.75,1.0,10.0,7.3177,1.0,513268.6613,8.1185,,,,5.0,2.0
284.0,2164.765,2164.769,2164.765,1.0,2164.765,2164.769,,1.0,,2164.765,2164.769,11.0,1.25,3.25,11.0,8.1227,0.0,513269.4664,8.9236,,,,5.0,2.0
285.0,2165.57,2165.575,2165.57,1.0,2165.57,2165.575,,1.0,,2165.57,2165.575,12.0,3.0,1.75,12.0,8.9279,1.0,513270.2718,9.7289,,,,5.0,2.0
286.0,2166.375,2166.382,2166.375,1.0,2166.375,2166.382,,1.0,,2166.375,2166.382,13.0,3.75,1.0,13.0,9.7333,0.0,513271.0781,10.5353,,,,5.0,2.0
287.0,2167.182,2167.187,2167.182,1.0,2167.182,2167.187,,1.0,,2167.182,2167.187,14.0,2.25,2.0,14.0,10.5402,0.0,513271.884,11.3411,,,,5.0,2.0
288.0,2167.988,2167.993,2167.988,1.0,2167.988,2167.993,,1.0,,2167.988,2167.993,15.0,3.25,3.25,15.0,11.3459,0.0,513272.6898,12.147,,,,5.0,2.0
289.0,2168.794,2168.799,2168.794,1.0,2168.794,2168.799,,1.0,,2168.794,2168.799,16.0,1.5,2.25,16.0,12.1518,0.0,513273.4959,12.9531,,,,5.0,2.0
290.0,2169.6,2169.605,2169.6,1.0,2169.6,2169.605,,1.0,,2169.6,2169.605,17.0,2.25,2.75,17.0,12.9576,0.0,513274.3014,13.7586,,,,5.0,2.0
291.0,2170.405,2170.41,2170.405,1.0,2170.405,2170.41,,1.0,,2170.405,2170.41,18.0,3.0,3.25,18.0,13.7635,0.0,513275.1071,14.5643,,,,5.0,2.0
292.0,2171.211,2171.216,2171.211,1.0,2171.211,2171.216,,1.0,,2171.211,2171.216,19.0,1.75,3.0,19.0,14.569,1.0,513275.9128,15.3699,,,,5.0,2.0
293.0,2172.016,2172.023,2172.016,1.0,2172.016,2172.023,,1.0,,2172.016,2172.023,20.0,2.75,1.25,20.0,15.3743,0.0,513276.7181,16.1753,,,,5.0,2.0
294.0,2172.824,2172.829,2172.824,1.0,2172.824,2172.829,,1.0,,2172.824,2172.829,21.0,1.25,2.25,21.0,16.1818,0.0,513277.5256,16.9828,,,,5.0,2.0
295.0,2173.63,2173.634,2173.63,1.0,2173.63,2173.634,,1.0,,2173.63,2173.634,22.0,3.75,2.0,22.0,16.9878,1.0,513278.3317,17.7889,,,,5.0,2.0
296.0,2174.435,2174.439,2174.435,1.0,2174.435,2174.439,,1.0,,2174.435,2174.439,23.0,2.75,1.5,23.0,17.7929,0.0,513279.1366,18.5937,,,,5.0,2.0
297.0,2175.244,2175.248,2175.244,1.0,2175.244,2175.248,,1.0,,2175.244,2175.248,24.0,3.25,1.75,24.0,18.5977,1.0,513279.9458,19.4029,,,,5.0,2.0
298.0,2176.049,2176.054,2176.049,1.0,2176.049,2176.054,,1.0,,2176.049,2176.054,25.0,2.5,3.0,25.0,19.407,0.0,513280.7509,20.2081,,,,5.0,2.0
299.0,2176.854,2176.86,2176.854,1.0,2176.854,2176.86,,1.0,,2176.854,2176.86,26.0,3.5,3.75,26.0,20.2121,1.0,513281.5558,21.0129,,,,5.0,2.0
300.0,2177.661,2177.668,2177.661,1.0,2177.661,2177.668,,1.0,,2177.661,2177.668,27.0,2.5,1.25,27.0,21.019,1.0,513282.3629,21.8201,,,,5.0,2.0
301.0,2178.469,2178.473,2178.469,1.0,2178.469,2178.473,,1.0,,2178.469,2178.473,28.0,1.25,1.75,28.0,21.827,1.0,513283.1709,22.628,,,,5.0,2.0
302.0,2179.274,2179.278,2179.274,1.0,2179.274,2179.278,,1.0,,2179.274,2179.278,29.0,3.5,1.75,29.0,22.632,0.0,513283.9757,23.4328,,,,5.0,2.0
303.0,2180.079,2180.085,2180.079,1.0,2180.079,2180.085,,1.0,,2180.079,2180.085,30.0,3.25,1.5,30.0,23.4368,0.0,513284.7808,24.2379,,,,5.0,2.0
304.0,2180.885,2180.89,2180.885,1.0,2180.885,2180.89,,1.0,,2180.885,2180.89,31.0,3.75,2.0,31.0,24.243,1.0,513285.587,25.0441,,,,5.0,2.0
305.0,2181.69,2181.697,2181.69,1.0,2181.69,2181.697,,1.0,,2181.69,2181.697,32.0,1.5,1.75,32.0,25.0481,0.0,513286.392,25.8491,,,,5.0,2.0
306.0,2182.498,2182.503,2182.498,1.0,2182.498,2182.503,,1.0,,2182.498,2182.503,33.0,2.75,2.25,33.0,25.8556,0.0,513287.1993,26.6564,,,,5.0,2.0
307.0,2183.304,2183.309,2183.304,1.0,2183.304,2183.309,,1.0,,2183.304,2183.309,34.0,2.0,3.25,34.0,26.6618,0.0,513288.0057,27.4628,,,,5.0,2.0
308.0,2184.11,2184.114,2184.11,1.0,2184.11,2184.114,,1.0,,2184.11,2184.114,35.0,2.75,2.5,35.0,27.4676,0.0,513288.8115,28.2686,,,,5.0,2.0
309.0,2184.915,2184.919,2184.915,1.0,2184.915,2184.919,,1.0,,2184.915,2184.919,36.0,3.75,1.75,36.0,28.2729,0.0,513289.6165,29.0737,,,,5.0,2.0
310.0,2185.72,2185.725,2185.72,1.0,2185.72,2185.725,,1.0,,2185.72,2185.725,37.0,3.25,3.25,37.0,29.0777,1.0,513290.4215,29.8786,,,,5.0,2.0
311.0,2186.526,2186.533,2186.526,1.0,2186.526,2186.533,,1.0,,2186.526,2186.533,38.0,2.0,2.5,38.0,29.884,0.0,513291.2275,30.6846,,,,5.0,2.0
312.0,2187.333,2187.338,2187.333,1.0,2187.333,2187.338,,1.0,,2187.333,2187.338,39.0,1.0,1.0,39.0,30.6915,1.0,513292.0351,31.4923,,,,5.0,2.0
313.0,2188.139,2188.146,2188.139,1.0,2188.139,2188.146,,1.0,,2188.139,2188.146,40.0,2.5,3.25,40.0,31.4967,0.0,513292.8405,32.2976,,,,5.0,2.0
314.0,2188.947,2188.951,2188.947,1.0,2188.947,2188.951,,1.0,,2188.947,2188.951,41.0,3.75,1.25,41.0,32.3045,0.0,513293.6483,33.1054,,,,5.0,2.0
315.0,2189.752,2189.756,2189.752,1.0,2189.752,2189.756,,1.0,,2189.752,2189.756,42.0,2.5,2.25,42.0,33.1096,1.0,513294.4533,33.9104,,,,5.0,2.0
316.0,2190.557,2190.562,2190.557,1.0,2190.557,2190.562,,1.0,,2190.557,2190.562,43.0,1.0,2.0,43.0,33.915,1.0,513295.2587,34.7158,,,,5.0,2.0
317.0,2191.362,2191.366,2191.362,1.0,2191.362,2191.366,,1.0,,2191.362,2191.366,44.0,1.25,3.25,44.0,34.7201,0.0,513296.0637,35.5208,,,,5.0,2.0
318.0,2192.167,2192.171,2192.167,1.0,2192.167,2192.171,,1.0,,2192.167,2192.171,45.0,1.75,2.5,45.0,35.5249,0.0,513296.8686,36.3257,,,,5.0,2.0
319.0,2192.972,2192.977,2192.972,1.0,2192.972,2192.977,,1.0,,2192.972,2192.977,46.0,1.25,2.75,46.0,36.3299,1.0,513297.6736,37.1307,,,,5.0,2.0
320.0,2193.777,2193.782,2193.777,1.0,2193.777,2193.782,,1.0,,2193.777,2193.782,47.0,1.75,2.75,47.0,37.1354,1.0,513298.4789,37.936,,,,5.0,2.0
321.0,2194.582,2194.589,2194.582,1.0,2194.582,2194.589,,1.0,,2194.582,2194.589,48.0,3.0,3.0,48.0,37.9402,0.0,513299.2839,38.741,,,,5.0,2.0
322.0,2195.39,2195.396,2195.39,1.0,2195.39,2195.396,,1.0,,2195.39,2195.396,49.0,2.25,1.25,49.0,38.7477,0.0,513300.0913,39.5485,,,,5.0,2.0
323.0,2196.196,2196.203,2196.196,1.0,2196.196,2196.203,,1.0,,2196.196,2196.203,50.0,1.5,3.5,50.0,39.5542,0.0,513300.8978,40.355,,,,5.0,2.0
324.0,2197.003,2197.008,2197.003,1.0,2197.003,2197.008,,1.0,,2197.003,2197.008,51.0,1.25,3.25,51.0,40.3613,1.0,513301.705,41.1622,,,,5.0,2.0
325.0,2197.808,2197.813,2197.808,1.0,2197.808,2197.813,,1.0,,2197.808,2197.813,52.0,2.5,3.75,52.0,41.1664,0.0,513302.51,41.9672,,,,5.0,2.0
326.0,2198.613,2198.618,2198.613,1.0,2198.613,2198.618,,1.0,,2198.613,2198.618,53.0,1.0,2.25,53.0,41.9712,0.0,513303.315,42.7722,,,,5.0,2.0
327.0,2199.419,2199.424,2199.419,1.0,2199.419,2199.424,,1.0,,2199.419,2199.424,54.0,1.25,3.75,54.0,42.7767,0.0,513304.1208,43.578,,,,5.0,2.0
328.0,2200.224,2200.23,2200.224,1.0,2200.224,2200.23,,1.0,,2200.224,2200.23,55.0,1.0,3.25,55.0,43.5821,0.0,513304.926,44.3832,,,,5.0,2.0
329.0,2201.031,2201.036,2201.031,1.0,2201.031,2201.036,,1.0,,2201.031,2201.036,56.0,3.25,3.5,56.0,44.3889,0.0,513305.7326,45.1897,,,,5.0,2.0
330.0,2201.837,2201.841,2201.837,1.0,2201.837,2201.841,,1.0,,2201.837,2201.841,57.0,1.25,2.0,57.0,45.1945,0.0,513306.5384,45.9955,,,,5.0,2.0
331.0,2202.642,2202.648,2202.642,1.0,2202.642,2202.648,,1.0,,2202.642,2202.648,58.0,1.75,3.25,58.0,46.0,1.0,513307.3453,46.8024,,,,5.0,2.0
332.0,2203.449,2203.453,2203.449,1.0,2203.449,2203.453,,1.0,,2203.449,2203.453,59.0,2.25,3.5,59.0,46.8069,0.0,513308.1505,47.6077,,,,5.0,2.0
333.0,2204.254,2204.258,2204.254,1.0,2204.254,2204.258,,1.0,,2204.254,2204.258,60.0,1.5,1.75,60.0,47.6117,1.0,513308.9553,48.4124,,,,5.0,2.0
334.0,2205.059,2205.064,2205.059,1.0,2205.059,2205.064,,1.0,,2205.059,2205.064,61.0,1.25,1.25,61.0,48.4165,0.0,513309.7605,49.2177,,,,5.0,2.0
335.0,2205.865,2205.869,2205.865,1.0,2205.865,2205.869,,1.0,,2205.865,2205.869,62.0,3.5,2.5,62.0,49.2226,1.0,513310.5663,50.0234,,,,5.0,2.0
336.0,2206.669,2206.675,2206.669,1.0,2206.669,2206.675,,1.0,,2206.669,2206.675,63.0,2.5,1.25,63.0,50.0273,1.0,513311.3712,50.8283,,,,5.0,2.0
337.0,2207.475,2207.48,2207.475,1.0,2207.475,2207.48,,1.0,,2207.475,2207.48,64.0,3.5,2.75,64.0,50.8331,0.0,513312.1769,51.634,,,,5.0,2.0
338.0,2208.281,2208.286,2208.281,1.0,2208.281,2208.286,,1.0,,2208.281,2208.286,65.0,2.0,2.5,65.0,51.6389,1.0,513312.9828,52.4399,,,,5.0,2.0
339.0,2209.086,2209.091,2209.086,1.0,2209.086,2209.091,,1.0,,2209.086,2209.091,66.0,2.0,1.0,66.0,52.4442,1.0,513313.7877,53.2448,,,,5.0,2.0
340.0,2209.892,2209.897,2209.892,1.0,2209.892,2209.897,,1.0,,2209.892,2209.897,67.0,1.5,1.25,67.0,53.2499,1.0,513314.5936,54.0507,,,,5.0,2.0
341.0,2210.698,2210.702,2210.698,1.0,2210.698,2210.702,,1.0,,2210.698,2210.702,68.0,1.5,1.5,68.0,54.0555,0.0,513315.3994,54.8565,,,,5.0,2.0
342.0,2211.503,2211.508,2211.503,1.0,2211.503,2211.508,,1.0,,2211.503,2211.508,69.0,2.25,1.0,69.0,54.861,0.0,513316.2047,55.6618,,,,5.0,2.0
343.0,2212.308,2212.313,2212.308,1.0,2212.308,2212.313,,1.0,,2212.308,2212.313,70.0,3.5,3.75,70.0,55.6663,1.0,513317.0101,56.4672,,,,5.0,2.0
344.0,2213.113,2213.118,2213.113,1.0,2213.113,2213.118,,1.0,,2213.113,2213.118,71.0,2.25,2.25,71.0,56.4713,1.0,513317.815,57.2721,,,,5.0,2.0
345.0,2213.919,2213.924,2213.919,1.0,2213.919,2213.924,,1.0,,2213.919,2213.924,72.0,2.0,3.5,72.0,57.2768,0.0,513318.6206,58.0777,,,,5.0,2.0
346.0,2214.724,2214.729,2214.724,1.0,2214.724,2214.729,,1.0,,2214.724,2214.729,73.0,2.0,1.25,73.0,58.0822,1.0,513319.4259,58.8831,,,,5.0,2.0
347.0,2215.529,2215.534,2215.529,1.0,2215.529,2215.534,,1.0,,2215.529,2215.534,74.0,3.25,2.0,74.0,58.8872,1.0,513320.2311,59.6882,,,,5.0,2.0
348.0,2216.334,2216.338,2216.334,1.0,2216.334,2216.338,,1.0,,2216.334,2216.338,75.0,1.5,2.0,75.0,59.6922,1.0,513321.0357,60.4929,,,,5.0,2.0
349.0,2217.139,2217.143,2217.139,1.0,2217.139,2217.143,,1.0,,2217.139,2217.143,76.0,1.25,1.25,76.0,60.4969,1.0,513321.8407,61.2978,,,,5.0,2.0
350.0,2217.944,2217.948,2217.944,1.0,2217.944,2217.948,,1.0,,2217.944,2217.948,77.0,3.75,3.75,77.0,61.3018,1.0,513322.6455,62.1027,,,,5.0,2.0
351.0,2218.749,2218.753,2218.749,1.0,2218.749,2218.753,,1.0,,2218.749,2218.753,78.0,2.5,1.0,78.0,62.1065,1.0,513323.4502,62.9074,,,,5.0,2.0
352.0,2219.553,2219.558,2219.553,1.0,2219.553,2219.558,,1.0,,2219.553,2219.558,79.0,1.5,2.0,79.0,62.9112,1.0,513324.255,63.7121,,,,5.0,2.0
353.0,2220.358,2220.362,2220.358,1.0,2220.358,2220.362,,1.0,,2220.358,2220.362,80.0,3.25,1.0,80.0,63.7162,0.0,513325.0598,64.5169,,,,5.0,2.0
354.0,2221.163,2221.167,2221.163,1.0,2221.163,2221.167,,1.0,,2221.163,2221.167,81.0,1.0,1.5,81.0,64.5209,0.0,513325.8645,65.3216,,,,5.0,2.0
355.0,2221.967,2221.972,2221.967,1.0,2221.967,2221.972,,1.0,,2221.967,2221.972,82.0,2.75,3.0,82.0,65.3253,1.0,513326.6689,66.126,,,,5.0,2.0
356.0,2222.772,2222.777,2222.772,1.0,2222.772,2222.777,,1.0,,2222.772,2222.777,83.0,2.75,2.25,83.0,66.1297,1.0,513327.4739,66.931,,,,5.0,2.0
357.0,2223.577,2223.582,2223.577,1.0,2223.577,2223.582,,1.0,,2223.577,2223.582,84.0,2.5,1.75,84.0,66.9354,0.0,513328.2792,67.7363,,,,5.0,2.0
358.0,2224.383,2224.387,2224.383,1.0,2224.383,2224.387,,1.0,,2224.383,2224.387,85.0,3.0,1.5,85.0,67.7403,1.0,513329.0845,68.5416,,,,5.0,2.0
359.0,2225.188,2225.192,2225.188,1.0,2225.188,2225.192,,1.0,,2225.188,2225.192,86.0,3.0,1.5,86.0,68.5455,1.0,513329.8892,69.3464,,,,5.0,2.0
360.0,2225.992,2225.997,2225.992,1.0,2225.992,2225.997,,1.0,,2225.992,2225.997,87.0,2.0,2.75,87.0,69.3504,0.0,513330.6941,70.1513,,,,5.0,2.0
361.0,2226.798,2226.803,2226.798,1.0,2226.798,2226.803,,1.0,,2226.798,2226.803,88.0,3.25,1.0,88.0,70.1559,1.0,513331.4996,70.9567,,,,5.0,2.0
362.0,2227.604,2227.608,2227.604,1.0,2227.604,2227.608,,1.0,,2227.604,2227.608,89.0,3.75,3.25,89.0,70.9617,1.0,513332.3055,71.7626,,,,5.0,2.0
363.0,2228.408,2228.413,2228.408,1.0,2228.408,2228.413,,1.0,,2228.408,2228.413,90.0,2.25,2.25,90.0,71.7665,1.0,513333.1101,72.5672,,,,5.0,2.0
364.0,2229.214,2229.219,2229.214,1.0,2229.214,2229.219,,1.0,,2229.214,2229.219,91.0,2.25,1.75,91.0,72.5712,1.0,513333.9157,73.3728,,,,5.0,2.0
365.0,2230.02,2230.024,2230.02,1.0,2230.02,2230.024,,1.0,,2230.02,2230.024,92.0,2.5,2.5,92.0,73.3778,1.0,513334.7218,74.1789,,,,5.0,2.0
366.0,2230.825,2230.829,2230.825,1.0,2230.825,2230.829,,1.0,,2230.825,2230.829,93.0,3.25,3.25,93.0,74.183,1.0,513335.5267,74.9839,,,,5.0,2.0
367.0,2231.63,2231.634,2231.63,1.0,2231.63,2231.634,,1.0,,2231.63,2231.634,94.0,2.75,2.0,94.0,74.9878,0.0,513336.3314,75.7885,,,,5.0,2.0
368.0,2232.434,2232.44,2232.434,1.0,2232.434,2232.44,,1.0,,2232.434,2232.44,95.0,3.25,2.5,95.0,75.7923,1.0,513337.136,76.5932,,,,5.0,2.0
369.0,2233.24,2233.244,2233.24,1.0,2233.24,2233.244,,1.0,,2233.24,2233.244,96.0,2.0,3.75,96.0,76.5975,1.0,513337.9418,77.3989,,,,5.0,2.0
370.0,2234.045,2234.049,2234.045,1.0,2234.045,2234.049,,1.0,,2234.045,2234.049,97.0,3.5,2.5,97.0,77.4029,0.0,513338.7466,78.2037,,,,5.0,2.0
371.0,2234.849,2234.853,2234.849,1.0,2234.849,2234.853,,1.0,,2234.849,2234.853,98.0,2.75,2.75,98.0,78.2074,0.0,513339.5509,79.0081,,,,5.0,2.0
372.0,2235.654,,,0.0,0.0,0.0,,0.0,,,,99.0,1.5,1.75,99.0,79.0118,1.0,513340.3553,79.8124,,,,5.0,2.0
