Trial number,Fixation Onset NEV,Image Onset NEV,Image Offset NEV,nothing,Fixation Onset NEV,Onset Choice Period,Response time NEV,Shade value NEV,Reaction time NEV,Trial onset,Trial offset,Nothing,TrialNum,Delay1,Delay2,TrialComplete,TimeImageOnset,ColorLev,TimeRec,TimeTrial,StartTrial,CrossStart,ResponseTime,BlockNumber,TrialTypeDesignation
1.0,134.80859375,,,0.0,0.0,0.0,,0.0,,134.80859375,140.818359375,1.0,3.25,1.25,1.0,1.5031,0.0,251752.9534,6.0249,6.42e-05,4.0209,-1.0,,1.0,3.0
2.0,142.072265625,,,0.0,0.0,0.0,,0.0,,142.072265625,148.0810546875,2.0,2.25,3.5,2.0,1.5027,0.0,251760.2158,13.2873,7.2775,11.2838,-1.0,,1.0,3.0
3.0,151.5888671875,157.09375,,0.0,0.0,0.0,,1.0,,151.5888671875,157.5947265625,3.0,3.25,3.75,3.0,1.5027,1.0,251769.7311,22.8026,16.79,20.7989,-1.0,,1.0,3.0
4.0,161.349609375,,161.3505859375,0.0,0.0,0.0,,0.0,,161.349609375,167.357421875,4.0,2.75,1.0,4.0,1.5028,0.0,251779.4932,32.5647,26.5551,30.5612,-1.0,,1.0,3.0
5.0,168.365234375,173.8740234375,,0.0,0.0,0.0,,1.0,,168.365234375,174.37890625,5.0,3.5,3.75,5.0,1.5042,1.0,251786.5132,39.5849,33.5674,37.5777,-1.0,,1.0,3.0
6.0,178.1328125,,178.1337890625,0.0,0.0,0.0,,0.0,,178.1328125,184.1396484375,6.0,3.0,3.25,6.0,1.5024,0.0,251796.2757,49.3471,43.3394,47.3443,-1.0,,1.0,3.0
7.0,187.3916015625,,,0.0,0.0,0.0,,0.0,,187.3916015625,193.400390625,7.0,3.0,2.0,7.0,1.5024,0.0,251805.5357,58.6071,52.5993,56.6044,-1.0,,1.0,3.0
8.0,195.4033203125,200.908203125,,0.0,0.0,0.0,,1.0,,195.4033203125,201.4091796875,8.0,2.75,1.5,8.0,1.5023,1.0,251813.5459,66.6174,60.6093,64.6146,-1.0,,1.0,3.0
9.0,202.9140625,208.4189453125,202.9150390625,0.0,0.0,0.0,207.427734375,1.0,207.427734375,202.9140625,208.9189453125,9.0,3.0,1.0,9.0,1.5027,1.0,251821.0564,74.1279,68.1197,72.1248,251679.3122,,1.0,3.0
10.0,209.9248046875,,209.92578125,0.0,0.0,0.0,,0.0,,209.9248046875,215.9296875,10.0,1.75,1.0,10.0,1.5023,0.0,251828.0669,81.1384,75.1306,79.1357,-1.0,,1.0,3.0
12.0,270.7119140625,276.21875,,0.0,0.0,0.0,276.0400390625,1.0,276.0400390625,270.7119140625,276.7197265625,1.0,3.25,1.25,1.0,1.5026,1.0,251888.8572,6.011,7.08e-05,4.008,251884.1647,,2.0,3.0
13.0,277.97265625,283.4794921875,277.9736328125,0.0,0.0,0.0,282.515625,0.0,282.515625,277.97265625,283.98046875,2.0,2.25,3.5,2.0,1.5025,0.0,251896.1181,13.272,7.2639,11.2691,251876.1194,,2.0,3.0
14.0,287.4833984375,292.990234375,287.484375,0.0,0.0,0.0,291.93359375,0.0,291.93359375,287.4833984375,293.4912109375,3.0,3.25,3.75,3.0,1.5025,0.0,251905.6283,22.7822,16.7742,20.7793,251866.5152,,2.0,3.0
15.0,297.244140625,302.7509765625,297.2451171875,0.0,0.0,0.0,301.9853515625,1.0,301.9853515625,297.244140625,303.251953125,4.0,2.75,1.0,4.0,1.5028,1.0,251915.3888,32.5427,26.5344,30.5395,251857.0506,,2.0,3.0
16.0,304.2548828125,309.759765625,304.255859375,0.0,0.0,0.0,309.458984375,1.0,309.458984375,304.2548828125,310.2626953125,5.0,3.5,3.75,5.0,1.5025,1.0,251922.3991,39.553,33.545,37.5501,251850.5015,,2.0,3.0
17.0,314.013671875,319.5205078125,314.0146484375,0.0,0.0,0.0,318.9775390625,1.0,318.9775390625,314.013671875,320.021484375,6.0,3.0,3.25,6.0,1.5024,1.0,251932.1591,49.313,43.3051,47.3102,251840.501,,2.0,3.0
18.0,323.2744140625,328.779296875,323.275390625,0.0,0.0,0.0,328.6015625,0.0,328.6015625,323.2744140625,329.2822265625,7.0,3.0,2.0,7.0,1.5025,0.0,251941.4194,58.5733,52.5652,56.5703,251831.6052,,2.0,3.0
19.0,331.28515625,336.7900390625,331.2861328125,0.0,0.0,0.0,,1.0,,331.28515625,337.291015625,8.0,2.75,1.5,8.0,1.5023,1.0,251949.4295,66.5834,60.5755,64.5807,-1.0,,2.0,3.0
20.0,338.7958984375,344.2998046875,338.796875,0.0,0.0,0.0,343.8173828125,1.0,343.8173828125,338.7958984375,344.80078125,9.0,3.0,1.0,9.0,1.5025,1.0,251956.9398,74.0937,68.0856,72.0909,251815.7802,,2.0,3.0
21.0,345.806640625,351.310546875,345.8076171875,0.0,0.0,0.0,350.8583984375,0.0,350.8583984375,345.806640625,351.8115234375,10.0,1.75,1.0,10.0,1.5024,0.0,251963.9504,81.1043,75.0959,79.1015,251808.7993,,2.0,3.0
22.0,352.8154296875,358.3212890625,352.81640625,0.0,0.0,0.0,357.978515625,1.0,357.978515625,352.8154296875,358.822265625,11.0,1.25,3.25,11.0,1.5025,1.0,251970.9607,88.1146,82.1064,86.1116,251801.8986,,2.0,3.0
23.0,362.0751953125,367.58203125,362.076171875,0.0,0.0,0.0,366.6650390625,0.0,366.6650390625,362.0751953125,368.0830078125,12.0,3.0,1.75,12.0,1.5025,0.0,251980.2209,97.3748,91.3667,95.3719,251792.066,,2.0,3.0
24.0,369.8369140625,375.3408203125,369.837890625,0.0,0.0,0.0,374.994140625,1.0,374.994140625,369.8369140625,375.841796875,13.0,3.75,1.0,13.0,1.5023,1.0,251987.981,105.1349,99.127,103.1322,251784.8732,,2.0,3.0
25.0,376.845703125,382.3515625,376.8466796875,0.0,0.0,0.0,381.3681640625,1.0,381.3681640625,376.845703125,382.8525390625,14.0,2.25,2.0,14.0,1.5024,1.0,251994.9912,112.1451,106.1371,110.1423,251777.229,,2.0,3.0
26.0,384.8564453125,390.3603515625,384.857421875,0.0,0.0,0.0,389.6171875,1.0,389.6171875,384.8564453125,390.8623046875,15.0,3.25,3.25,15.0,1.5024,1.0,252003.0013,120.1552,114.1472,118.1525,251769.4569,,2.0,3.0
27.0,394.115234375,399.62109375,394.1162109375,0.0,0.0,0.0,398.9765625,0.0,398.9765625,394.115234375,400.1220703125,16.0,1.5,2.25,16.0,1.5024,0.0,252012.2613,129.4152,123.4074,127.4125,251760.2967,,2.0,3.0
28.0,402.3759765625,407.8798828125,402.376953125,0.0,0.0,0.0,407.1044921875,0.0,407.1044921875,402.3759765625,408.3828125,17.0,2.25,2.75,17.0,1.5024,0.0,252020.5213,137.6752,131.6674,135.6724,251751.9046,,2.0,3.0
29.0,411.13671875,416.640625,411.1376953125,0.0,0.0,0.0,415.865234375,1.0,415.865234375,411.13671875,417.1416015625,18.0,3.0,3.25,18.0,1.5024,1.0,252029.2814,146.4353,140.4274,144.4325,251743.1447,,2.0,3.0
30.0,420.3955078125,425.9013671875,420.396484375,0.0,0.0,0.0,424.888671875,1.0,424.888671875,420.3955078125,426.40234375,19.0,1.75,3.0,19.0,1.5024,1.0,252038.5415,155.6954,149.6875,153.6926,251733.6485,,2.0,3.0
31.0,429.40625,434.912109375,429.4072265625,0.0,0.0,0.0,433.9599609375,1.0,433.9599609375,429.40625,435.4150390625,20.0,2.75,1.25,20.0,1.5029,1.0,252047.5532,164.7071,158.6983,162.7038,251724.6985,,2.0,3.0
32.0,436.666015625,442.1728515625,436.6669921875,0.0,0.0,0.0,441.080078125,1.0,441.080078125,436.666015625,442.673828125,21.0,1.25,2.25,21.0,1.5026,1.0,252054.8133,171.9672,165.9592,169.9643,251717.2971,,2.0,3.0
33.0,444.927734375,450.431640625,444.9287109375,0.0,0.0,0.0,449.7529296875,1.0,449.7529296875,444.927734375,450.93359375,22.0,3.75,2.0,22.0,1.5025,1.0,252063.0736,180.2275,174.2194,178.2246,251709.4483,,2.0,3.0
34.0,452.9365234375,458.4423828125,452.9375,0.0,0.0,0.0,457.86328125,1.0,457.86328125,452.9365234375,458.9453125,23.0,2.75,1.5,23.0,1.5025,1.0,252071.0837,188.2376,182.2297,186.2347,251701.5401,,2.0,3.0
35.0,460.4462890625,465.953125,460.447265625,0.0,0.0,0.0,465.095703125,0.0,465.095703125,460.4462890625,466.4541015625,24.0,3.25,1.75,24.0,1.5024,0.0,252078.5938,195.7477,189.7398,193.7449,251693.7518,,2.0,3.0
36.0,468.20703125,473.7119140625,468.2080078125,0.0,0.0,0.0,473.2724609375,0.0,473.2724609375,468.20703125,474.21484375,25.0,2.5,3.0,25.0,1.5025,0.0,252086.3539,203.5078,197.4999,201.5049,251686.4075,,2.0,3.0
37.0,477.216796875,482.72265625,477.2177734375,0.0,0.0,0.0,481.5673828125,1.0,481.5673828125,477.216796875,483.2236328125,26.0,3.5,3.75,26.0,1.5026,1.0,252095.3641,212.518,206.51,210.5151,251676.6836,,2.0,3.0
38.0,486.9765625,492.4833984375,486.9775390625,0.0,0.0,0.0,491.7265625,0.0,491.7265625,486.9765625,492.984375,27.0,2.5,1.25,27.0,1.5024,0.0,252105.1242,222.278,216.2702,220.2753,251667.3228,,2.0,3.0
39.0,494.2373046875,,494.23828125,0.0,0.0,0.0,,0.0,,494.2373046875,500.2470703125,28.0,1.25,1.75,28.0,1.5029,0.0,252112.3853,229.5392,223.5304,227.5359,-1.0,,2.0,3.0
40.0,501.9990234375,507.5048828125,,0.0,0.0,0.0,506.65625,1.0,506.65625,501.9990234375,508.005859375,29.0,3.5,1.75,29.0,1.5026,1.0,252120.1467,237.3005,231.2924,235.2976,251652.2065,,2.0,3.0
41.0,509.759765625,515.265625,509.7607421875,0.0,0.0,0.0,514.8798828125,1.0,514.8798828125,509.759765625,515.765625,30.0,3.25,1.5,30.0,1.5024,1.0,252127.9069,245.0608,239.0527,243.058,251644.9098,,2.0,3.0
42.0,586.3212890625,591.826171875,586.322265625,0.0,0.0,0.0,,1.0,,586.3212890625,592.3271484375,1.0,3.25,1.25,1.0,1.5023,1.0,252204.469,6.0108,4.33e-05,4.008,-1.0,,3.0,3.0
43.0,593.58203125,599.0869140625,593.5830078125,0.0,0.0,0.0,598.3349609375,0.0,598.3349609375,593.58203125,599.5869140625,2.0,2.25,3.5,2.0,1.5024,0.0,252211.7293,13.2711,7.2631,11.2683,252191.945,,3.0,3.0
44.0,603.09375,608.599609375,603.0947265625,0.0,0.0,0.0,607.822265625,0.0,607.822265625,603.09375,609.1015625,3.0,3.25,3.75,3.0,1.5034,0.0,252221.2433,22.7851,16.7733,20.7813,252182.4099,,3.0,3.0
45.0,612.8544921875,618.3603515625,612.85546875,0.0,0.0,0.0,617.765625,1.0,617.765625,612.8544921875,618.8623046875,4.0,2.75,1.0,4.0,1.5026,1.0,252231.0044,32.5462,26.5373,30.5432,252172.828,,3.0,3.0
46.0,619.8671875,625.37109375,619.8681640625,0.0,0.0,0.0,625.1171875,1.0,625.1171875,619.8671875,625.8720703125,5.0,3.5,3.75,5.0,1.5025,1.0,252238.0149,39.5567,33.5487,37.5538,252166.1577,,3.0,3.0
47.0,629.6259765625,635.1318359375,629.626953125,0.0,0.0,0.0,634.7421875,0.0,634.7421875,629.6259765625,635.6328125,6.0,3.0,3.25,6.0,1.5025,0.0,252247.775,49.3168,43.3089,47.3139,252156.2616,,3.0,3.0
48.0,638.88671875,644.392578125,638.8876953125,0.0,0.0,0.0,644.0224609375,1.0,644.0224609375,638.88671875,644.892578125,7.0,3.0,2.0,7.0,1.5025,1.0,252257.0354,58.5771,52.569,56.5742,252147.0212,,3.0,3.0
49.0,646.8974609375,652.4013671875,646.8984375,0.0,0.0,0.0,651.58203125,1.0,651.58203125,646.8974609375,652.904296875,8.0,2.75,1.5,8.0,1.5024,1.0,252265.0454,66.5872,60.5793,64.5844,252138.5607,,3.0,3.0
50.0,654.40625,659.912109375,654.4072265625,0.0,0.0,0.0,659.158203125,1.0,659.158203125,654.40625,660.4130859375,9.0,3.0,1.0,9.0,1.5025,1.0,252272.5555,74.0973,68.0893,72.0944,252131.1167,,3.0,3.0
51.0,661.4169921875,666.9228515625,661.41796875,0.0,0.0,0.0,665.95703125,1.0,665.95703125,661.4169921875,667.423828125,10.0,1.75,1.0,10.0,1.5025,1.0,252279.5657,81.1075,75.0995,79.1046,252123.8964,,3.0,3.0
52.0,668.42578125,673.931640625,668.4267578125,0.0,0.0,0.0,673.1015625,1.0,673.1015625,668.42578125,674.4345703125,11.0,1.25,3.25,11.0,1.5026,1.0,252286.576,88.1178,82.1097,86.1147,252117.0201,,3.0,3.0
53.0,677.6865234375,683.1923828125,677.6875,0.0,0.0,0.0,682.4921875,0.0,682.4921875,677.6865234375,683.6953125,12.0,3.0,1.75,12.0,1.5025,0.0,252295.8364,97.3782,91.37,95.3753,252107.8911,,3.0,3.0
54.0,685.4462890625,690.953125,685.447265625,0.0,0.0,0.0,689.98828125,1.0,689.98828125,685.4462890625,691.4541015625,13.0,3.75,1.0,13.0,1.5024,1.0,252303.5966,105.1384,99.1304,103.1356,252099.8665,,3.0,3.0
55.0,692.45703125,697.9619140625,692.4580078125,0.0,0.0,0.0,696.9638671875,1.0,696.9638671875,692.45703125,698.46484375,14.0,2.25,2.0,14.0,1.5025,1.0,252310.6067,112.1485,106.1406,110.1456,252092.8221,,3.0,3.0
56.0,700.4677734375,705.97265625,700.46875,0.0,0.0,0.0,705.01171875,1.0,705.01171875,700.4677734375,706.4736328125,15.0,3.25,3.25,15.0,1.5024,1.0,252318.6169,120.1586,114.1506,118.1558,252084.85,,3.0,3.0
57.0,709.7265625,715.2333984375,709.7275390625,0.0,0.0,0.0,714.7001953125,1.0,714.7001953125,709.7265625,715.734375,16.0,1.5,2.25,16.0,1.5024,1.0,252327.8769,129.4186,123.4108,127.4158,252076.0178,,3.0,3.0
58.0,717.98828125,723.4921875,717.9892578125,0.0,0.0,0.0,722.7724609375,0.0,722.7724609375,717.98828125,723.9931640625,17.0,2.25,2.75,17.0,1.5024,0.0,252336.1369,137.6787,131.6708,135.6759,252067.5696,,3.0,3.0
59.0,726.7470703125,732.2529296875,726.748046875,0.0,0.0,0.0,731.4033203125,1.0,731.4033203125,726.7470703125,732.75390625,18.0,3.0,3.25,18.0,1.5024,1.0,252344.897,146.4387,140.4309,144.4359,252058.6817,,3.0,3.0
60.0,736.005859375,741.51171875,736.0068359375,0.0,0.0,0.0,740.70703125,1.0,740.70703125,736.005859375,742.0146484375,19.0,1.75,3.0,19.0,1.5024,1.0,252354.157,155.6988,149.6909,153.696,252049.4653,,3.0,3.0
61.0,745.017578125,750.521484375,745.0185546875,0.0,0.0,0.0,749.3720703125,1.0,749.3720703125,745.017578125,751.025390625,20.0,2.75,1.25,20.0,1.5024,1.0,252363.1674,164.7092,158.7011,162.7063,252040.109,,3.0,3.0
62.0,752.2783203125,757.7822265625,752.279296875,0.0,0.0,0.0,757.435546875,0.0,757.435546875,752.2783203125,758.2861328125,21.0,1.25,2.25,21.0,1.5025,0.0,252370.4284,171.9702,165.962,169.9673,252033.6508,,3.0,3.0
63.0,760.5390625,766.0439453125,760.5400390625,0.0,0.0,0.0,,1.0,,760.5390625,766.544921875,22.0,3.75,2.0,22.0,1.5023,1.0,252378.6885,180.2302,174.2223,178.2275,-1.0,,3.0,3.0
64.0,768.5478515625,774.052734375,768.548828125,0.0,0.0,0.0,773.5634765625,1.0,773.5634765625,768.5478515625,774.5546875,23.0,2.75,1.5,23.0,1.5025,1.0,252386.6987,188.2405,182.2324,186.2376,252017.2383,,3.0,3.0
65.0,776.05859375,781.5625,776.0595703125,0.0,0.0,0.0,780.908203125,1.0,780.908203125,776.05859375,782.06640625,24.0,3.25,1.75,24.0,1.5026,1.0,252394.2089,195.7507,189.7427,193.7478,252009.5617,,3.0,3.0
66.0,783.8193359375,789.32421875,783.8203125,0.0,0.0,0.0,789.0263671875,0.0,789.0263671875,783.8193359375,789.8251953125,25.0,2.5,3.0,25.0,1.5024,0.0,252401.9693,203.5111,197.503,201.5083,252002.161,,3.0,3.0
67.0,792.828125,798.3330078125,792.8291015625,0.0,0.0,0.0,798.0673828125,0.0,798.0673828125,792.828125,798.8359375,26.0,3.5,3.75,26.0,1.5026,0.0,252410.9794,212.5212,206.5132,210.5183,251993.1809,,3.0,3.0
68.0,802.5888671875,808.09375,802.58984375,0.0,0.0,0.0,807.5224609375,0.0,807.5224609375,802.5888671875,808.5966796875,27.0,2.5,1.25,27.0,1.5026,0.0,252420.7398,222.2815,216.2734,220.2786,251983.1164,,3.0,3.0
69.0,809.849609375,815.353515625,809.8505859375,0.0,0.0,0.0,815.1064453125,1.0,815.1064453125,809.849609375,815.857421875,28.0,1.25,1.75,28.0,1.5025,1.0,252428.0002,229.542,223.5337,227.5391,251976.1796,,3.0,3.0
70.0,817.6083984375,823.115234375,817.609375,0.0,0.0,0.0,822.8603515625,1.0,822.8603515625,817.6083984375,823.6162109375,29.0,3.5,1.75,29.0,1.5024,1.0,252435.7607,237.3025,231.2941,235.2997,251968.4105,,3.0,3.0
71.0,825.37109375,,,0.0,0.0,0.0,,0.0,,,,30.0,3.25,1.5,30.0,1.5025,1.0,252443.5208,245.0625,239.0546,243.0597,251960.53,,3.0,3.0
